#timestamp [ns]	w_RS_S_x [rad s^-1]	w_RS_S_y [rad s^-1]	w_RS_S_z [rad s^-1]	a_RS_S_x [m s^-2]	a_RS_S_y [m s^-2]	a_RS_S_z [m s^-2]
1.40364E+18	-0.0502654824574367	0.039095375244673	0.0523598775598299	9.782133375	-0.465815875	-3.219850083
1.40364E+18	-0.0635299847725936	0.06771877497738	0.0404916386462684	9.716755708	-0.318716125	-3.211677875
1.40364E+18	-0.0823795406941324	0.0726056968829641	0.0342084533390889	9.349006333	-0.14709975	-3.154472417
1.40364E+18	-0.0900589894029074	0.06771877497738	0.0439822971502571	9.332661917	-0.310543916666667	-3.129955792
1.40364E+18	-0.0998328332140757	0.0593411945678072	0.0272271363311115	8.9240515	-0.727326541666667	-2.941995
1.40364E+18	-0.0984365698124802	0.00767944870877505	0.0216420827247297	8.605335375	-0.588399	-2.89296175
1.40364E+18	-0.100530964914873	0.0020943951023932	0.0314159265358979	9.26728425	-0.4903325	-2.99102825
1.40364E+18	-0.108908545324446	-0.0125663706143592	0.0397935069454707	9.112012292	-0.661948875	-2.99102825
1.40364E+18	-0.116587994033221	-0.0125663706143592	0.0565486677646163	9.504278292	-0.433127041666667	-3.129955792
1.40364E+18	-0.101927228316469	-0.0167551608191456	0.0984365698124802	9.26728425	-0.596571208333333	-2.933822792
1.40364E+18	-0.0956440430092893	-0.018151424220741	0.106814150222053	9.921060917	-0.898942916666667	-3.366949833
1.40364E+18	-0.0851720674973233	-0.0167551608191456	0.0886627260013119	9.496106083	-0.621087833333333	-3.048233708
1.40364E+18	-0.0747000919853573	-0.0411897703470662	0.105417886820457	9.65955025	-0.171616375	-3.28522775
1.40364E+18	-0.0886627260013119	-0.0523598775598299	0.0844739357965256	9.733100125	-0.326888333333333	-3.317916583
1.40364E+18	-0.10471975511966	-0.0816814089933346	0.0600393262686049	9.921060917	-0.14709975	-3.456844125
1.40364E+18	-0.108210413623648	-0.0740019602845596	0.0621337213709981	10.01095521	-0.0653776666666667	-3.28522775
1.40364E+18	-0.108210413623648	-0.0816814089933346	0.0663225115757845	10.04364404	-0.612915625	-3.407810875
1.40364E+18	-0.113097335529233	-0.0726056968829641	0.0363028484414821	10.26429367	-0.523021333333333	-3.28522775
1.40364E+18	-0.106814150222053	-0.0593411945678072	0.0537561409614254	9.95374975	-0.269682875	-3.162644625
1.40364E+18	-0.0956440430092893	-0.0411897703470662	0.0642281164733913	9.912888708	-0.457643666666667	-3.228022292
1.40364E+18	-0.100530964914873	-0.0356047167406843	0.0509636141582344	9.75761675	-0.621087833333333	-3.162644625
1.40364E+18	-0.0935496479068961	-0.0293215314335047	0.0558505360638185	9.675894667	-0.302371708333333	-3.072750333
1.40364E+18	-0.0851720674973233	-0.028623399732707	0.0788888821901437	9.496106083	-0.563882375	-3.056405917
1.40364E+18	-0.0816814089933346	-0.0265290046303138	0.0656243798749868	9.65955025	-0.44129925	-3.146300208
1.40364E+18	-0.0844739357965256	-0.0265290046303138	0.0670206432765822	9.136528917	-0.310543916666667	-2.803067458
1.40364E+18	-0.078190750489346	-0.0370009801422798	0.0886627260013119	9.332661917	-0.302371708333333	-2.958339417
1.40364E+18	-0.0726056968829641	-0.028623399732707	0.0865683308989187	9.504278292	-0.678293291666667	-3.007372667
1.40364E+18	-0.0628318530717959	-0.0335103216382911	0.0942477796076938	9.626861417	-0.449471458333333	-3.195333458
1.40364E+18	-0.0460766922526503	-0.0188495559215388	0.122173047639603	9.643205833	-0.433127041666667	-3.129955792
1.40364E+18	-0.0376991118430775	-0.0230383461263252	0.125663706143592	9.95374975	-0.359577166666667	-3.293399958
1.40364E+18	-0.0356047167406843	-0.0258308729295161	0.117286125734019	9.782133375	-0.171616375	-3.195333458
1.40364E+18	-0.0328121899374934	-0.0495673507566389	0.118682389135614	10.02729963	0.0163444166666667	-3.146300208
1.40364E+18	-0.0439822971502571	-0.0488692190558412	0.096342174710087	10.31332692	-0.138927541666667	-3.326088792
1.40364E+18	-0.0565486677646163	-0.0537561409614254	0.0635299847725936	10.26429367	0.0408610416666667	-3.252538917
1.40364E+18	-0.0691150383789754	-0.0453785605518526	0.0544542726622231	10.32967133	0.2941995	-3.2361945
1.40364E+18	-0.0788888821901437	-0.0425860337486616	0.0488692190558412	10.198916	-0.155271958333333	-3.113611375
1.40364E+18	-0.0865683308989187	-0.0397935069454707	0.0279252680319093	10.198916	-0.277855083333333	-3.203505667
1.40364E+18	-0.0795870138909414	-0.0342084533390889	0.0376991118430775	9.95374975	-0.187960791666667	-3.048233708
1.40364E+18	-0.075398223686155	-0.0307177948351002	0.0614355896702004	9.896544292	-0.302371708333333	-3.162644625
1.40364E+18	-0.0795870138909414	-0.0293215314335047	0.0635299847725936	9.822994417	-0.34323275	-3.105439167
1.40364E+18	-0.0802851455917391	-0.028623399732707	0.0900589894029074	9.602344792	-0.228821833333333	-2.950167208
1.40364E+18	-0.0774926187885482	-0.0328121899374934	0.115191730631626	9.692239083	-0.482160291666667	-2.958339417
1.40364E+18	-0.0767944870877505	-0.0314159265358979	0.121474915938805	9.741272333	-0.653776666666667	-2.958339417
1.40364E+18	-0.0740019602845596	-0.0300196631343025	0.12915436464758	9.700411292	-0.335060541666667	-2.933822792
1.40364E+18	-0.0691150383789754	-0.0237364778271229	0.149400183970715	9.626861417	-0.2941995	-2.860272917
1.40364E+18	-0.0760963553869528	-0.0188495559215388	0.145909525466726	9.847511042	-0.326888333333333	-2.966511625
1.40364E+18	-0.0886627260013119	-0.00488692190558412	0.142418866962737	9.773961167	-0.163444166666667	-2.917478375
1.40364E+18	-0.0977384381116825	-0.0111701072127637	0.143815130364333	9.863855458	-0.0572054583333333	-2.950167208
1.40364E+18	-0.108210413623648	-0.00907571211037051	0.115191730631626	9.888372083	-0.228821833333333	-3.048233708
1.40364E+18	-0.126361837844389	-0.0153588974175501	0.0795870138909414	10.01095521	-0.04903325	-3.138128
1.40364E+18	-0.132645023151569	-0.00977384381116825	0.0649262481741891	9.85568325	-0.04903325	-3.097266958
1.40364E+18	-0.134739418253962	-0.0202458193231342	0.0530580092606276	10.05181625	-0.367749375	-3.268883333
1.40364E+18	-0.136135681655558	-0.0153588974175501	0.0411897703470662	9.912888708	-0.498504708333333	-3.277055542
1.40364E+18	-0.120776784238008	-0.0188495559215388	0.0628318530717959	9.9047165	-0.449471458333333	-3.301572167
1.40364E+18	-0.106814150222053	-0.00837758040957278	0.0795870138909414	9.814822208	-0.6864655	-3.38329425
1.40364E+18	-0.0970403064108847	-0.00628318530717959	0.0872664625997165	9.822994417	-0.653776666666667	-3.358777625
1.40364E+18	-0.0942477796076938	0.000698131700797732	0.0928515162060983	9.626861417	-0.375921583333333	-3.170816833
1.40364E+18	-0.0886627260013119	-0.0146607657167524	0.106116018521255	9.553311542	-0.4903325	-3.105439167
1.40364E+18	-0.0970403064108847	-0.0146607657167524	0.0921533845053006	9.7085835	-0.547537958333333	-3.113611375
1.40364E+18	-0.100530964914873	-0.0174532925199433	0.0844739357965256	9.610517	-0.433127041666667	-2.982856042
1.40364E+18	-0.101229096615671	-0.0111701072127637	0.0956440430092893	9.692239083	-0.506676916666667	-2.909306167
1.40364E+18	-0.100530964914873	-0.00837758040957278	0.0998328332140757	9.700411292	-0.612915625	-2.917478375
1.40364E+18	-0.102625360017267	0.00488692190558412	0.100530964914873	9.602344792	-0.424954833333333	-2.8439285
1.40364E+18	-0.0998328332140757	0.00349065850398866	0.116587994033221	9.504278292	-0.457643666666667	-2.79489525
1.40364E+18	-0.0977384381116825	0.00907571211037051	0.114493598930828	9.643205833	-0.547537958333333	-2.933822792
1.40364E+18	-0.101927228316469	0.00279252680319093	0.111002940426839	9.586000375	-0.408610416666667	-2.966511625
1.40364E+18	-0.100530964914873	0.00139626340159546	0.117984257434817	9.643205833	-0.261510666666667	-3.023717083
1.40364E+18	-0.0991347015132779	0.000698131700797732	0.112399203828435	9.724927917	-0.4903325	-3.162644625
1.40364E+18	-0.106116018521255	-0.000698131700797732	0.0914552528045029	9.85568325	-0.416782625	-3.18716125
1.40364E+18	-0.0991347015132779	-0.00279252680319093	0.0914552528045029	9.773961167	-0.236994041666667	-3.129955792
1.40364E+18	-0.10471975511966	-0.00349065850398866	0.0760963553869528	9.765788958	-0.277855083333333	-3.097266958
1.40364E+18	-0.114493598930828	-0.0118682389135614	0.0502654824574367	9.733100125	-0.302371708333333	-3.08909475
1.40364E+18	-0.125663706143592	-0.00837758040957278	0.0363028484414821	9.479761667	-0.236994041666667	-2.917478375
1.40364E+18	-0.129852496348378	-0.0125663706143592	0.0349065850398866	9.504278292	-0.473988083333333	-3.031889292
1.40364E+18	-0.134041286553164	-0.00698131700797732	0.0146607657167524	9.504278292	-0.596571208333333	-3.08909475
1.40364E+18	-0.131946891450771	-0.00139626340159546	0.0195476876223365	9.3163175	-0.367749375	-3.138128
1.40364E+18	-0.131946891450771	0.00698131700797732	0.0307177948351002	9.152873333	-0.523021333333333	-3.129955792
1.40364E+18	-0.129852496348378	-0.00488692190558412	0.0370009801422798	8.981256958	-0.784532	-3.18716125
1.40364E+18	-0.118682389135614	-0.00698131700797732	0.0411897703470662	8.842329417	-0.678293291666667	-3.18716125
1.40364E+18	-0.102625360017267	-0.0307177948351002	0.0705113017805709	8.768779542	-0.751843166666667	-3.170816833
1.40364E+18	-0.0879645943005142	-0.0453785605518526	0.0837758040957278	9.022118	-0.898942916666667	-3.350605417
1.40364E+18	-0.078190750489346	-0.0551524043630208	0.101927228316469	9.030290208	-0.678293291666667	-3.358777625
1.40364E+18	-0.0670206432765822	-0.0544542726622231	0.122173047639603	9.259112042	-0.473988083333333	-3.28522775
1.40364E+18	-0.0628318530717959	-0.0621337213709981	0.126361837844389	9.340834125	-0.547537958333333	-3.301572167
1.40364E+18	-0.06771877497738	-0.0600393262686049	0.111701072127637	9.586000375	-0.351404958333333	-3.334261
1.40364E+18	-0.0684169066781777	-0.0628318530717959	0.105417886820457	9.414384	-0.236994041666667	-3.178989042
1.40364E+18	-0.0774926187885482	-0.0663225115757845	0.078190750489346	9.528794917	-0.277855083333333	-3.211677875
1.40364E+18	-0.0907571211037051	-0.0698131700797732	0.0537561409614254	9.438900625	-0.261510666666667	-3.121783583
1.40364E+18	-0.101229096615671	-0.075398223686155	0.0425860337486616	9.340834125	-0.171616375	-3.105439167
1.40364E+18	-0.0991347015132779	-0.0795870138909414	0.0397935069454707	9.26728425	-0.473988083333333	-3.064578125
1.40364E+18	-0.0949459113084915	-0.0774926187885482	0.020943951023932	9.340834125	-0.604743416666667	-3.129955792
1.40364E+18	-0.0851720674973233	-0.0719075651821664	0.0244346095279206	8.948568125	-0.53936575	-3.0400615
1.40364E+18	-0.0823795406941324	-0.0774926187885482	0.0300196631343025	8.850501625	-0.498504708333333	-2.958339417
1.40364E+18	-0.0767944870877505	-0.0851720674973233	0.0223402144255274	8.597163167	-0.588399	-2.958339417
1.40364E+18	-0.0767944870877505	-0.0998328332140757	0.0153588974175501	8.597163167	-0.555710166666667	-3.007372667
1.40364E+18	-0.0663225115757845	-0.103323491718064	0.0314159265358979	8.572646542	-0.694637708333333	-3.064578125
1.40364E+18	-0.0635299847725936	-0.106814150222053	0.0328121899374934	8.687057458	-0.874426291666667	-3.097266958
1.40364E+18	-0.0593411945678072	-0.108908545324446	0.0488692190558412	8.564474333	-0.719154333333333	-3.056405917
1.40364E+18	-0.0544542726622231	-0.109606677025244	0.075398223686155	8.736090708	-0.547537958333333	-2.99102825
1.40364E+18	-0.0537561409614254	-0.114493598930828	0.0907571211037051	8.785123958	-0.572054583333333	-3.007372667
1.40364E+18	-0.0670206432765822	-0.117286125734019	0.0809832772925369	9.128356708	-0.400438208333333	-3.0400615
1.40364E+18	-0.0788888821901437	-0.111701072127637	0.0837758040957278	9.079323458	-0.392266	-2.966511625
1.40364E+18	-0.0872664625997165	-0.108908545324446	0.0740019602845596	9.283628667	-0.531193541666667	-3.023717083
1.40364E+18	-0.0886627260013119	-0.0956440430092893	0.0607374579694027	9.3163175	-0.572054583333333	-3.048233708
1.40364E+18	-0.0907571211037051	-0.0886627260013119	0.0502654824574367	9.275456458	-0.457643666666667	-3.056405917
1.40364E+18	-0.0900589894029074	-0.085870199198121	0.0544542726622231	9.038462417	-0.621087833333333	-3.113611375
1.40364E+18	-0.0879645943005142	-0.0865683308989187	0.0586430628670095	9.095667875	-0.653776666666667	-3.195333458
1.40364E+18	-0.0767944870877505	-0.0886627260013119	0.0774926187885482	8.858673833	-0.760015375	-3.178989042
1.40364E+18	-0.0579449311662117	-0.0949459113084915	0.0998328332140757	8.964912542	-0.939803958333333	-3.211677875
1.40364E+18	-0.0411897703470662	-0.0991347015132779	0.112399203828435	8.915879292	-1.152281375	-3.203505667
1.40364E+18	-0.0230383461263252	-0.101229096615671	0.119380520836412	9.112012292	-0.964320583333333	-3.2361945
1.40364E+18	-0.0125663706143592	-0.101229096615671	0.13543754995476	9.128356708	-0.874426291666667	-3.154472417
1.40364E+18	-0.00767944870877505	-0.108908545324446	0.136135681655558	9.422556208	-0.751843166666667	-3.211677875
1.40364E+18	-0.0153588974175501	-0.105417886820457	0.127758101245985	9.553311542	-0.53936575	-3.162644625
1.40364E+18	-0.028623399732707	-0.106814150222053	0.126361837844389	9.741272333	-0.547537958333333	-3.203505667
1.40364E+18	-0.0481710873550435	-0.103323491718064	0.106814150222053	9.9047165	-0.694637708333333	-3.211677875
1.40364E+18	-0.0635299847725936	-0.0942477796076938	0.0886627260013119	10.10902171	-0.547537958333333	-3.244366708
1.40364E+18	-0.0809832772925369	-0.0795870138909414	0.0844739357965256	10.03547183	-0.4903325	-3.277055542
1.40364E+18	-0.0991347015132779	-0.0740019602845596	0.0837758040957278	10.07633288	-0.531193541666667	-3.366949833
1.40364E+18	-0.119380520836412	-0.0642281164733913	0.0767944870877505	9.970094167	-0.670121083333333	-3.4323275
1.40364E+18	-0.12915436464758	-0.0579449311662117	0.0851720674973233	9.872027667	-0.6864655	-3.448671917
1.40364E+18	-0.136135681655558	-0.0432841654494594	0.0907571211037051	9.724927917	-0.83356525	-3.505877375
1.40364E+18	-0.14451326206513	-0.0411897703470662	0.0830776723949301	9.692239083	-0.83356525	-3.514049583
1.40364E+18	-0.150098315671512	-0.0307177948351002	0.075398223686155	9.635033625	-0.661948875	-3.530394
1.40364E+18	-0.157777764380287	-0.0258308729295161	0.0760963553869528	9.643205833	-0.751843166666667	-3.603943875
1.40364E+18	-0.161268422884276	-0.00837758040957278	0.0684169066781777	9.724927917	-0.947976166666667	-3.652977125
1.40364E+18	-0.161966554585074	0.0	0.0712094334813687	9.75761675	-0.947976166666667	-3.644804917
1.40364E+18	-0.151494579073108	0.0153588974175501	0.0844739357965256	9.733100125	-1.02969825	-3.612116083
1.40364E+18	-0.139626340159546	0.0216420827247297	0.0949459113084915	9.847511042	-1.02969825	-3.644804917
1.40364E+18	-0.132645023151569	0.0370009801422798	0.0998328332140757	9.921060917	-0.866254083333333	-3.710182583
1.40364E+18	-0.127059969545187	0.0446804288510548	0.109606677025244	10.14171054	-0.727326541666667	-3.767388042
1.40364E+18	-0.122871179340401	0.057246799465414	0.100530964914873	10.32149912	-0.678293291666667	-3.767388042
1.40364E+18	-0.123569311041199	0.0614355896702004	0.078190750489346	10.35418796	-0.604743416666667	-3.702010375
1.40364E+18	-0.127059969545187	0.0712094334813687	0.0558505360638185	10.37870458	-0.465815875	-3.603943875
1.40364E+18	-0.131248759749974	0.0684169066781777	0.0321140582366957	10.32149912	-0.506676916666667	-3.563082833
1.40364E+18	-0.14451326206513	0.0760963553869528	0.00488692190558412	10.37053238	-0.498504708333333	-3.505877375
1.40364E+18	-0.15707963267949	0.0809832772925369	-0.0139626340159546	10.21526042	-0.514849125	-3.538566208
1.40364E+18	-0.159174027781883	0.0879645943005142	-0.0258308729295161	10.10902171	-0.63743225	-3.489532958
1.40364E+18	-0.159174027781883	0.0893608577021097	-0.0370009801422798	9.970094167	-0.73549875	-3.473188542
1.40364E+18	-0.157777764380287	0.101229096615671	-0.0411897703470662	9.921060917	-0.694637708333333	-3.505877375
1.40364E+18	-0.158475896081085	0.105417886820457	-0.0314159265358979	9.847511042	-0.792704208333333	-3.538566208
1.40364E+18	-0.159872159482681	0.105417886820457	-0.0314159265358979	9.822994417	-0.866254083333333	-3.563082833
1.40364E+18	-0.154287105876299	0.0984365698124802	-0.0216420827247297	9.773961167	-0.890770708333333	-3.489532958
1.40364E+18	-0.145211393765928	0.096342174710087	-0.00488692190558412	9.921060917	-0.915287333333333	-3.505877375
1.40364E+18	-0.13543754995476	0.0900589894029074	0.0139626340159546	9.986438583	-0.964320583333333	-3.448671917
1.40364E+18	-0.122173047639603	0.0928515162060983	0.0314159265358979	10.24794925	-0.800876416666667	-3.424155292
1.40364E+18	-0.108210413623648	0.0935496479068961	0.0565486677646163	10.23160483	-0.760015375	-3.277055542
1.40364E+18	-0.0998328332140757	0.096342174710087	0.0747000919853573	10.47677108	-0.653776666666667	-3.293399958
1.40364E+18	-0.100530964914873	0.0991347015132779	0.0823795406941324	10.50128771	-0.506676916666667	-3.211677875
1.40364E+18	-0.102625360017267	0.101229096615671	0.078190750489346	10.63204304	-0.253338458333333	-3.2361945
1.40364E+18	-0.115889862332423	0.0970403064108847	0.0635299847725936	10.56666537	-0.253338458333333	-3.2361945
1.40364E+18	-0.132645023151569	0.0914552528045029	0.0376991118430775	10.58300979	-0.171616375	-3.211677875
1.40364E+18	-0.139626340159546	0.0851720674973233	0.0265290046303138	10.23160483	-0.236994041666667	-3.146300208
1.40364E+18	-0.147305788868321	0.0712094334813687	0.0111701072127637	10.13353833	-0.351404958333333	-3.121783583
1.40364E+18	-0.151494579073108	0.0579449311662117	0.00628318530717959	9.888372083	-0.465815875	-3.080922542
1.40364E+18	-0.145211393765928	0.0453785605518526	0.0111701072127637	9.921060917	-0.498504708333333	-3.178989042
1.40364E+18	-0.133343154852367	0.0397935069454707	0.0293215314335047	9.822994417	-0.727326541666667	-3.2361945
1.40364E+18	-0.114493598930828	0.0272271363311115	0.0474729556542458	9.822994417	-0.800876416666667	-3.301572167
1.40364E+18	-0.0886627260013119	0.0160570291183478	0.0705113017805709	9.675894667	-0.800876416666667	-3.293399958
1.40364E+18	-0.0712094334813687	-0.00837758040957278	0.100530964914873	9.773961167	-0.661948875	-3.342433208
1.40364E+18	-0.0586430628670095	-0.0216420827247297	0.115191730631626	9.822994417	-0.612915625	-3.415983083
1.40364E+18	-0.0523598775598299	-0.0383972435438752	0.119380520836412	9.994610792	-0.482160291666667	-3.489532958
1.40364E+18	-0.0502654824574367	-0.0460766922526503	0.122871179340401	10.05181625	-0.416782625	-3.489532958
1.40364E+18	-0.0558505360638185	-0.0600393262686049	0.115191730631626	10.23977704	-0.408610416666667	-3.489532958
1.40364E+18	-0.0621337213709981	-0.0670206432765822	0.103323491718064	10.27246588	-0.2941995	-3.48136075
1.40364E+18	-0.0649262481741891	-0.0851720674973233	0.0984365698124802	10.37053238	-0.236994041666667	-3.448671917
1.40364E+18	-0.0740019602845596	-0.0907571211037051	0.0865683308989187	10.37870458	-0.253338458333333	-3.399638667
1.40364E+18	-0.0837758040957278	-0.100530964914873	0.0726056968829641	10.31332692	-0.253338458333333	-3.301572167
1.40364E+18	-0.0928515162060983	-0.108210413623648	0.0558505360638185	10.21526042	-0.253338458333333	-3.219850083
1.40364E+18	-0.0991347015132779	-0.114493598930828	0.0474729556542458	10.05998846	-0.2941995	-3.178989042
1.40364E+18	-0.0998328332140757	-0.120776784238008	0.0432841654494594	9.847511042	-0.318716125	-3.121783583
1.40364E+18	-0.0977384381116825	-0.125663706143592	0.0460766922526503	9.773961167	-0.335060541666667	-3.072750333
1.40364E+18	-0.096342174710087	-0.124267442741996	0.0488692190558412	9.651378042	-0.2941995	-3.064578125
1.40364E+18	-0.0956440430092893	-0.127758101245985	0.0481710873550435	9.56148375	-0.286027291666667	-3.0400615
1.40364E+18	-0.096342174710087	-0.12915436464758	0.0425860337486616	9.56148375	-0.286027291666667	-3.080922542
1.40364E+18	-0.101927228316469	-0.12915436464758	0.0383972435438752	9.626861417	-0.335060541666667	-3.178989042
1.40364E+18	-0.105417886820457	-0.126361837844389	0.0258308729295161	9.798477792	-0.408610416666667	-3.293399958
1.40364E+18	-0.105417886820457	-0.126361837844389	0.0265290046303138	9.822994417	-0.465815875	-3.317916583
1.40364E+18	-0.111002940426839	-0.125663706143592	0.0230383461263252	9.937405333	-0.416782625	-3.350605417
1.40364E+18	-0.114493598930828	-0.125663706143592	0.0314159265358979	9.970094167	-0.473988083333333	-3.350605417
1.40364E+18	-0.119380520836412	-0.12007865253721	0.0356047167406843	10.2969825	-0.416782625	-3.407810875
1.40364E+18	-0.125663706143592	-0.110304808726042	0.0404916386462684	10.37870458	-0.359577166666667	-3.448671917
1.40364E+18	-0.143116998663535	-0.0928515162060983	0.0272271363311115	10.46859887	-0.335060541666667	-3.473188542
1.40364E+18	-0.152890842474703	-0.075398223686155	0.0146607657167524	10.23160483	-0.359577166666667	-3.399638667
1.40364E+18	-0.168249739892253	-0.0551524043630208	0.00279252680319093	10.06816067	-0.269682875	-3.358777625
1.40364E+18	-0.178721715404219	-0.046774823953448	-0.00837758040957278	9.716755708	-0.359577166666667	-3.203505667
1.40364E+18	-0.189193690916185	-0.0328121899374934	-0.0202458193231342	9.56148375	-0.34323275	-3.162644625
1.40364E+18	-0.193382481120972	-0.0237364778271229	-0.0188495559215388	9.250939833	-0.384093791666667	-3.113611375
1.40364E+18	-0.194080612821769	-0.0202458193231342	-0.0132645023151569	9.234595417	-0.34323275	-3.154472417
1.40364E+18	-0.189891822616983	-0.00767944870877505	-0.00418879020478639	9.030290208	-0.367749375	-3.178989042
1.40364E+18	-0.188495559215388	0.00418879020478639	0.00418879020478639	9.087495667	-0.261510666666667	-3.228022292
1.40364E+18	-0.194778744522567	0.0139626340159546	0.00628318530717959	9.054806833	-0.2941995	-3.2361945
1.40364E+18	-0.201760061530544	0.0195476876223365	-0.00139626340159546	9.242767625	-0.286027291666667	-3.293399958
1.40364E+18	-0.205948851735331	0.0244346095279206	-0.00628318530717959	9.26728425	-0.326888333333333	-3.309744375
1.40364E+18	-0.21223203704251	0.0328121899374934	-0.0153588974175501	9.528794917	-0.318716125	-3.440499708
1.40364E+18	-0.215024563845701	0.0453785605518526	-0.0216420827247297	9.643205833	-0.359577166666667	-3.465016333
1.40364E+18	-0.216420827247297	0.0579449311662117	-0.0272271363311115	9.765788958	-0.416782625	-3.595771667
1.40364E+18	-0.217118958948095	0.0740019602845596	-0.0237364778271229	9.773961167	-0.457643666666667	-3.661149333
1.40364E+18	-0.215024563845701	0.0907571211037051	-0.0244346095279206	9.790305583	-0.514849125	-3.669321542
1.40364E+18	-0.21223203704251	0.111002940426839	-0.0258308729295161	9.692239083	-0.514849125	-3.636632708
1.40364E+18	-0.210137641940117	0.121474915938805	-0.0202458193231342	9.610517	-0.514849125	-3.554910625
1.40364E+18	-0.201760061530544	0.128456232946783	-0.0118682389135614	9.406211792	-0.555710166666667	-3.424155292
1.40364E+18	-0.198269403026556	0.136833813356355	-0.00418879020478639	9.381695167	-0.53936575	-3.4323275
1.40364E+18	-0.185004900711399	0.151494579073108	0.00907571211037051	9.242767625	-0.604743416666667	-3.358777625
1.40364E+18	-0.167551608191456	0.168249739892253	0.0279252680319093	9.185562167	-0.604743416666667	-3.326088792
1.40364E+18	-0.153588974175501	0.185703032412197	0.046774823953448	9.046634625	-0.604743416666667	-3.211677875
1.40364E+18	-0.143116998663535	0.194778744522567	0.057246799465414	9.013945792	-0.506676916666667	-3.146300208
1.40364E+18	-0.13543754995476	0.208043246837724	0.0698131700797732	8.981256958	-0.4903325	-3.178989042
1.40364E+18	-0.123569311041199	0.216420827247297	0.0767944870877505	9.022118	-0.449471458333333	-3.277055542
1.40364E+18	-0.122871179340401	0.224100275956072	0.0823795406941324	9.1201845	-0.392266	-3.317916583
1.40364E+18	-0.117984257434817	0.231081592964049	0.0830776723949301	9.144701125	-0.2941995	-3.375122042
1.40364E+18	-0.124267442741996	0.237364778271229	0.0712094334813687	9.259112042	-0.138927541666667	-3.38329425
1.40364E+18	-0.133343154852367	0.233175988066442	0.0565486677646163	9.340834125	0.024516625	-3.358777625
1.40364E+18	-0.143116998663535	0.23387411976724	0.028623399732707	9.504278292	0.130755333333333	-3.391466458
1.40364E+18	-0.158475896081085	0.235968514869633	0.0174532925199433	9.553311542	0.106238708333333	-3.415983083
1.40364E+18	-0.168947871593051	0.245044226980004	-0.0020943951023932	9.651378042	0.0898942916666667	-3.424155292
1.40364E+18	-0.166853476490658	0.249931148885588	-0.00977384381116825	9.487933875	-0.0163444166666667	-3.334261
1.40364E+18	-0.165457213089062	0.257610597594363	-0.0195476876223365	9.398039583	-0.0572054583333333	-3.309744375
1.40364E+18	-0.164060949687467	0.261799387799149	-0.0188495559215388	9.16921775	-0.073549875	-3.244366708
1.40364E+18	-0.159872159482681	0.267384441405531	-0.0223402144255274	9.095667875	-0.073549875	-3.28522775
1.40364E+18	-0.154287105876299	0.268780704807127	-0.0188495559215388	8.858673833	-0.179788583333333	-3.178989042
1.40364E+18	-0.143815130364333	0.272271363311115	-0.0167551608191456	8.785123958	-0.212477416666667	-3.138128
1.40364E+18	-0.13543754995476	0.268082573106329	-0.010471975511966	8.507268875	-0.318716125	-3.007372667
1.40364E+18	-0.12915436464758	0.266686309704734	-0.00698131700797732	8.588990958	-0.318716125	-3.154472417
1.40364E+18	-0.117286125734019	0.268082573106329	0.00349065850398866	8.548129917	-0.310543916666667	-3.203505667
1.40364E+18	-0.120776784238008	0.26459191460234	0.0020943951023932	8.719746292	-0.220649625	-3.309744375
1.40364E+18	-0.124965574442794	0.258308729295161	0.000698131700797732	8.711574083	-0.187960791666667	-3.334261
1.40364E+18	-0.134041286553164	0.254119939090374	-0.0139626340159546	8.899534875	-0.0817220833333333	-3.342433208
1.40364E+18	-0.146607657167524	0.245742358680802	-0.0265290046303138	8.87501825	-0.0408610416666667	-3.326088792
1.40364E+18	-0.158475896081085	0.226892802759263	-0.0453785605518526	9.144701125	0.024516625	-3.28522775
1.40364E+18	-0.173834793498635	0.21851522234969	-0.0698131700797732	9.250939833	0.0326888333333333	-3.326088792
1.40364E+18	-0.185004900711399	0.20943951023932	-0.0809832772925369	9.520622708	0.0898942916666667	-3.309744375
1.40364E+18	-0.18779742751459	0.207345115136926	-0.0872664625997165	9.471589458	0.0408610416666667	-3.219850083
1.40364E+18	-0.188495559215388	0.199665666428151	-0.0942477796076938	9.471589458	0.024516625	-3.18716125
1.40364E+18	-0.189193690916185	0.20315632493214	-0.0935496479068961	9.193734375	0.0572054583333333	-3.08909475
1.40364E+18	-0.184306769010601	0.201760061530544	-0.085870199198121	9.046634625	0.0653776666666667	-3.080922542
1.40364E+18	-0.180117978805815	0.198269403026556	-0.0823795406941324	8.744262917	-0.0163444166666667	-2.982856042
1.40364E+18	-0.178721715404219	0.190589954317781	-0.0865683308989187	8.539957708	-0.04903325	-2.958339417
1.40364E+18	-0.171042266695444	0.184306769010601	-0.085870199198121	8.302963667	-0.14709975	-2.966511625
1.40364E+18	-0.160570291183478	0.177325452002624	-0.0795870138909414	8.327480292	-0.286027291666667	-3.08909475
1.40364E+18	-0.143815130364333	0.178721715404219	-0.06771877497738	8.245758208	-0.310543916666667	-3.170816833
1.40364E+18	-0.12915436464758	0.175231056900231	-0.0495673507566389	8.28661925	-0.318716125	-3.219850083
1.40364E+18	-0.118682389135614	0.170344134994647	-0.0397935069454707	8.351996917	-0.277855083333333	-3.268883333
1.40364E+18	-0.109606677025244	0.159174027781883	-0.0167551608191456	8.441891208	-0.253338458333333	-3.244366708
1.40364E+18	-0.100530964914873	0.150098315671512	-0.00558505360638185	8.662540833	-0.187960791666667	-3.277055542
1.40364E+18	-0.096342174710087	0.13543754995476	0.00628318530717959	8.858673833	-0.0980665	-3.211677875
1.40364E+18	-0.0949459113084915	0.128456232946783	0.00837758040957278	8.997601375	-0.024516625	-3.252538917
1.40364E+18	-0.0879645943005142	0.120776784238008	0.0118682389135614	9.152873333	0.0572054583333333	-3.211677875
1.40364E+18	-0.0851720674973233	0.120776784238008	0.00558505360638185	9.16921775	0.106238708333333	-3.18716125
1.40364E+18	-0.0837758040957278	0.115191730631626	0.010471975511966	9.087495667	0.0653776666666667	-3.08909475
1.40364E+18	-0.0823795406941324	0.119380520836412	0.010471975511966	8.915879292	0.187960791666667	-3.031889292
1.40364E+18	-0.0809832772925369	0.113097335529233	0.0146607657167524	8.629852	0.14709975	-2.974683833
1.40364E+18	-0.075398223686155	0.107512281922851	0.010471975511966	8.597163167	0.179788583333333	-2.950167208
1.40364E+18	-0.0733038285837618	0.100530964914873	0.0174532925199433	8.311135875	0.163444166666667	-2.901133958
1.40364E+18	-0.0719075651821664	0.0935496479068961	0.0230383461263252	8.229413792	0.212477416666667	-2.884789542
1.40364E+18	-0.0712094334813687	0.0886627260013119	0.0342084533390889	8.115002875	0.0898942916666667	-2.852100708
1.40364E+18	-0.0649262481741891	0.0872664625997165	0.0453785605518526	8.1395195	0.0980665	-2.79489525
1.40364E+18	-0.0579449311662117	0.0837758040957278	0.057246799465414	8.057797417	0.130755333333333	-2.737689792
1.40364E+18	-0.0558505360638185	0.0900589894029074	0.0642281164733913	8.18855275	0.24516625	-2.803067458
1.40364E+18	-0.0523598775598299	0.0893608577021097	0.0760963553869528	8.106830667	0.261510666666667	-2.786723042
1.40364E+18	-0.0544542726622231	0.0949459113084915	0.0795870138909414	8.115002875	0.359577166666667	-2.745862
1.40364E+18	-0.0530580092606276	0.0872664625997165	0.085870199198121	7.837147792	0.416782625	-2.6477955
1.40364E+18	-0.0523598775598299	0.0830776723949301	0.0928515162060983	7.886181042	0.523021333333333	-2.680484333
1.40364E+18	-0.0558505360638185	0.0802851455917391	0.0977384381116825	7.714564667	0.465815875	-2.664139917
1.40364E+18	-0.0635299847725936	0.0712094334813687	0.0977384381116825	7.771770125	0.555710166666667	-2.688656542
1.40364E+18	-0.0656243798749868	0.0684169066781777	0.0991347015132779	7.657359208	0.473988083333333	-2.574245625
1.40364E+18	-0.0691150383789754	0.0621337213709981	0.104021623418862	7.591981542	0.555710166666667	-2.525212375
1.40364E+18	-0.0698131700797732	0.0544542726622231	0.0998328332140757	7.428537375	0.523021333333333	-2.4516625
1.40364E+18	-0.0733038285837618	0.0439822971502571	0.085870199198121	7.575637125	0.580226791666667	-2.418973667
1.40364E+18	-0.0726056968829641	0.0370009801422798	0.0712094334813687	7.428537375	0.588399	-2.329079375
1.40364E+18	-0.0698131700797732	0.0237364778271229	0.0530580092606276	7.493915042	0.596571208333333	-2.271873917
1.40364E+18	-0.0747000919853573	0.0174532925199433	0.0460766922526503	7.412192958	0.53936575	-2.149290792
1.40364E+18	-0.075398223686155	0.00139626340159546	0.0404916386462684	7.453054	0.63743225	-2.157463
1.40364E+18	-0.0809832772925369	0.00279252680319093	0.0425860337486616	7.40402075	0.596571208333333	-2.067568708
1.40364E+18	-0.0816814089933346	-0.00767944870877505	0.0502654824574367	7.420365167	0.465815875	-1.944985583
1.40364E+18	-0.0851720674973233	-0.00977384381116825	0.0523598775598299	7.330470875	0.34323275	-1.920468958
1.40364E+18	-0.0802851455917391	-0.0153588974175501	0.0586430628670095	7.224232167	0.302371708333333	-1.91229675
1.40364E+18	-0.075398223686155	-0.0118682389135614	0.0712094334813687	7.019926958	0.302371708333333	-1.91229675
1.40364E+18	-0.0698131700797732	-0.0146607657167524	0.0788888821901437	6.880999417	0.416782625	-1.895952333
1.40364E+18	-0.0774926187885482	-0.0153588974175501	0.085870199198121	6.644005375	0.457643666666667	-1.928641167
1.40364E+18	-0.0802851455917391	-0.0258308729295161	0.0956440430092893	6.472389	0.514849125	-1.920468958
1.40364E+18	-0.0844739357965256	-0.028623399732707	0.0998328332140757	6.357978083	0.563882375	-1.928641167
1.40364E+18	-0.0893608577021097	-0.039095375244673	0.111002940426839	6.145500667	0.63743225	-1.838746875
1.40364E+18	-0.0984365698124802	-0.0502654824574367	0.110304808726042	6.153672875	0.653776666666667	-1.871435708
1.40364E+18	-0.10471975511966	-0.0579449311662117	0.110304808726042	6.137328458	0.4903325	-1.904124542
1.40364E+18	-0.110304808726042	-0.0614355896702004	0.115191730631626	6.210878333	0.44129925	-1.936813375
1.40364E+18	-0.106116018521255	-0.0621337213709981	0.131248759749974	6.145500667	0.318716125	-1.928641167
1.40364E+18	-0.0942477796076938	-0.0635299847725936	0.148003920569119	6.12915625	0.204305208333333	-1.838746875
1.40364E+18	-0.0802851455917391	-0.06771877497738	0.164060949687467	6.071950792	0.0980665	-1.797885833
1.40364E+18	-0.0649262481741891	-0.0712094334813687	0.178721715404219	6.153672875	0.0817220833333333	-1.838746875
1.40364E+18	-0.0509636141582344	-0.0788888821901437	0.189193690916185	6.202706125	0.00817220833333333	-1.806058042
1.40364E+18	-0.0376991118430775	-0.0823795406941324	0.185004900711399	6.357978083	0.122583125	-1.887780125
1.40364E+18	-0.0293215314335047	-0.0809832772925369	0.175929188601028	6.235394958	0.196133	-1.887780125
1.40364E+18	-0.028623399732707	-0.0844739357965256	0.15707963267949	6.366150292	0.310543916666667	-1.895952333
1.40364E+18	-0.0349065850398866	-0.0900589894029074	0.140324471860344	6.276256	0.310543916666667	-1.91229675
1.40364E+18	-0.0349065850398866	-0.0935496479068961	0.127059969545187	6.349805875	0.367749375	-1.928641167
1.40364E+18	-0.0321140582366957	-0.0984365698124802	0.125663706143592	6.186361708	0.277855083333333	-1.8632635
1.40364E+18	-0.0279252680319093	-0.105417886820457	0.128456232946783	6.251739375	0.196133	-1.936813375
1.40364E+18	-0.0202458193231342	-0.106814150222053	0.138928208458749	6.137328458	0.114410916666667	-1.920468958
1.40364E+18	-0.0125663706143592	-0.108210413623648	0.142418866962737	6.210878333	0.122583125	-1.985846625
1.40364E+18	-0.00628318530717959	-0.106814150222053	0.143815130364333	6.071950792	0.114410916666667	-2.075740917
1.40364E+18	-0.00767944870877505	-0.110304808726042	0.139626340159546	6.104639625	0.253338458333333	-2.132946375
1.40364E+18	-0.00977384381116825	-0.108210413623648	0.136135681655558	5.965712083	0.236994041666667	-2.181979625
1.40364E+18	-0.0160570291183478	-0.115889862332423	0.133343154852367	5.941195458	0.269682875	-2.247357292
1.40364E+18	-0.0223402144255274	-0.117286125734019	0.133343154852367	5.810440125	0.179788583333333	-2.231012875
1.40364E+18	-0.0202458193231342	-0.127758101245985	0.136833813356355	5.826784542	0.122583125	-2.214668458
1.40364E+18	-0.0216420827247297	-0.13543754995476	0.128456232946783	5.83495675	0.0163444166666667	-2.247357292
1.40364E+18	-0.0188495559215388	-0.14172073526194	0.121474915938805	5.957539875	-0.0572054583333333	-2.312734958
1.40364E+18	-0.0132645023151569	-0.143815130364333	0.120776784238008	6.071950792	-0.130755333333333	-2.386284833
1.40364E+18	-0.00349065850398866	-0.143815130364333	0.124965574442794	6.210878333	-0.196133	-2.435318083
1.40364E+18	0.0020943951023932	-0.148003920569119	0.127059969545187	6.235394958	-0.277855083333333	-2.435318083
1.40364E+18	0.020943951023932	-0.160570291183478	0.139626340159546	6.390666917	-0.318716125	-2.459834708
1.40364E+18	0.0383972435438752	-0.161268422884276	0.150098315671512	6.578627708	-0.367749375	-2.525212375
1.40364E+18	0.0481710873550435	-0.173136661797837	0.158475896081085	6.791105125	-0.318716125	-2.557901208
1.40364E+18	0.0600393262686049	-0.175929188601028	0.166853476490658	6.91368825	-0.335060541666667	-2.549729
1.40364E+18	0.0719075651821664	-0.185004900711399	0.178023583703422	6.930032667	-0.335060541666667	-2.492523542
1.40364E+18	0.0747000919853573	-0.191986217719376	0.18151424220741	7.126165667	-0.253338458333333	-2.533384583
1.40364E+18	0.0802851455917391	-0.198967534727354	0.18779742751459	7.10982125	-0.196133	-2.590590042
1.40364E+18	0.0747000919853573	-0.190589954317781	0.191986217719376	7.20788775	-0.106238708333333	-2.672312125
1.40364E+18	0.0705113017805709	-0.191986217719376	0.197571271325758	6.954549292	-0.179788583333333	-2.6477955
1.40364E+18	0.0684169066781777	-0.198967534727354	0.189891822616983	6.897343833	-0.236994041666667	-2.623278875
1.40364E+18	0.0635299847725936	-0.21223203704251	0.183608637309803	6.733899667	-0.286027291666667	-2.582417833
1.40364E+18	0.0635299847725936	-0.228987197861656	0.180117978805815	6.864655	-0.204305208333333	-2.655967708
1.40364E+18	0.0614355896702004	-0.242949831877611	0.180816110506613	6.856482792	-0.204305208333333	-2.705000958
1.40364E+18	0.0607374579694027	-0.254818070791172	0.18151424220741	7.183371125	-0.14709975	-2.713173167
1.40364E+18	0.0607374579694027	-0.269478836507924	0.185703032412197	7.289609833	-0.163444166666667	-2.754034208
1.40364E+18	0.0600393262686049	-0.275762021815104	0.188495559215388	7.583809333	-0.073549875	-2.737689792
1.40364E+18	0.0614355896702004	-0.286932129027868	0.195476876223365	7.739081292	-0.024516625	-2.729517583
1.40364E+18	0.0705113017805709	-0.29251718263425	0.198269403026556	8.147691708	0.0898942916666667	-2.8439285
1.40364E+18	0.0705113017805709	-0.29251718263425	0.206646983436129	8.180380542	0.187960791666667	-2.933822792
1.40364E+18	0.0614355896702004	-0.297404104539834	0.206646983436129	8.466407833	0.318716125	-3.121783583
1.40364E+18	0.0509636141582344	-0.296705972839036	0.203854456632938	8.376513542	0.269682875	-3.195333458
1.40364E+18	0.0335103216382911	-0.305083553248609	0.198269403026556	8.441891208	0.228821833333333	-3.277055542
1.40364E+18	0.0153588974175501	-0.315555528760575	0.194778744522567	8.237586	0.14709975	-3.350605417
1.40364E+18	0.00907571211037051	-0.330216294477327	0.189193690916185	8.262102625	0.0408610416666667	-3.350605417
1.40364E+18	0.00139626340159546	-0.346273323595675	0.178023583703422	8.172208333	-0.073549875	-3.358777625
1.40364E+18	-0.00767944870877505	-0.361632221013225	0.168249739892253	8.302963667	-0.0817220833333333	-3.415983083
1.40364E+18	-0.0132645023151569	-0.365122879517214	0.155683369277894	8.237586	-0.138927541666667	-3.375122042
1.40364E+18	-0.0118682389135614	-0.379085513533168	0.152192710773906	8.28661925	-0.212477416666667	-3.366949833
1.40364E+18	-0.0139626340159546	-0.383274303737955	0.152192710773906	8.294791458	-0.261510666666667	-3.326088792
1.40364E+18	-0.00907571211037051	-0.395840674352314	0.156381500978692	8.38468575	-0.269682875	-3.260711125
1.40364E+18	-0.00139626340159546	-0.399331332856303	0.159872159482681	8.490924458	-0.253338458333333	-3.244366708
1.40364E+18	0.00139626340159546	-0.411199571769864	0.168249739892253	8.629852	-0.171616375	-3.293399958
1.40364E+18	0.00628318530717959	-0.41538836197465	0.173834793498635	8.670713042	-0.0980665	-3.350605417
1.40364E+18	0.00349065850398866	-0.425162205785819	0.182910505609006	8.825985	-0.04903325	-3.424155292
1.40364E+18	-0.0020943951023932	-0.423067810683425	0.191288086018579	8.907707083	0.0	-3.563082833
1.40364E+18	-0.00628318530717959	-0.431445391092998	0.208043246837724	8.964912542	-0.0898942916666667	-3.67749375
1.40364E+18	-0.0111701072127637	-0.430049127691403	0.206646983436129	9.030290208	-0.122583125	-3.77556025
1.40364E+18	-0.0132645023151569	-0.434936049596987	0.208741378538522	8.989429167	-0.212477416666667	-3.849110125
1.40364E+18	-0.0139626340159546	-0.436332312998582	0.205250720034533	9.079323458	-0.14709975	-4.004382083
1.40364E+18	-0.0132645023151569	-0.434936049596987	0.200363798128949	8.956740333	-0.187960791666667	-4.012554292
1.40364E+18	-0.0174532925199433	-0.439822971502571	0.18779742751459	9.046634625	-0.163444166666667	-4.094276375
1.40364E+18	-0.0237364778271229	-0.441219234904167	0.178023583703422	9.005773583	-0.155271958333333	-4.126965208
1.40364E+18	-0.0342084533390889	-0.44331363000656	0.161268422884276	9.103840083	-0.171616375	-4.151481833
1.40364E+18	-0.0418879020478639	-0.441219234904167	0.148702052269917	8.981256958	-0.212477416666667	-4.086104167
1.40364E+18	-0.0446804288510548	-0.441917366604964	0.136833813356355	9.1201845	-0.196133	-4.045243125
1.40364E+18	-0.0418879020478639	-0.44331363000656	0.136833813356355	9.030290208	-0.204305208333333	-3.930832208
1.40364E+18	-0.039095375244673	-0.444011761707357	0.147305788868321	9.161045542	-0.171616375	-3.881798958
1.40364E+18	-0.0383972435438752	-0.447502420211346	0.157777764380287	9.136528917	-0.277855083333333	-3.832765708
1.40364E+18	-0.0279252680319093	-0.457974395723312	0.168249739892253	9.349006333	-0.34323275	-3.791904667
1.40364E+18	-0.0111701072127637	-0.455181868920121	0.18151424220741	9.373522958	-0.44129925	-3.742871417
1.40364E+18	0.00279252680319093	-0.45867252742411	0.191986217719376	9.545139333	-0.44129925	-3.767388042
1.40364E+18	0.0202458193231342	-0.454483737219323	0.205948851735331	9.577828167	-0.359577166666667	-3.832765708
1.40364E+18	0.0237364778271229	-0.453087473817728	0.211533905341713	9.724927917	-0.187960791666667	-3.996209875
1.40364E+18	0.0230383461263252	-0.444011761707357	0.211533905341713	9.602344792	-0.114410916666667	-4.102448583
1.40364E+18	0.0167551608191456	-0.441917366604964	0.206646983436129	9.65955025	-0.0572054583333333	-4.257720542
1.40364E+18	0.0125663706143592	-0.445408025108953	0.200363798128949	9.5124505	-0.0980665	-4.396648083
1.40364E+18	0.00767944870877505	-0.453087473817728	0.196175007924163	9.520622708	-0.179788583333333	-4.511059
1.40364E+18	0.00698131700797732	-0.450993078715335	0.19687313962496	9.545139333	-0.253338458333333	-4.617297708
1.40364E+18	0.00628318530717959	-0.455181868920121	0.190589954317781	9.635033625	-0.326888333333333	-4.649986542
1.40364E+18	0.0174532925199433	-0.451691210416132	0.191288086018579	9.733100125	-0.433127041666667	-4.739880833
1.40364E+18	0.0293215314335047	-0.449596815313739	0.199665666428151	9.872027667	-0.498504708333333	-4.715364208
1.40364E+18	0.0411897703470662	-0.441219234904167	0.207345115136926	9.978266375	-0.53936575	-4.715364208
1.40364E+18	0.0565486677646163	-0.434936049596987	0.217118958948095	10.08450508	-0.580226791666667	-4.674503167
1.40364E+18	0.0691150383789754	-0.420973415581032	0.216420827247297	10.28881029	-0.645604458333333	-4.625469917
1.40364E+18	0.0830776723949301	-0.413293966872257	0.221307749152881	10.36236017	-0.596571208333333	-4.576436667
1.40364E+18	0.0984365698124802	-0.395840674352314	0.217118958948095	10.44408225	-0.416782625	-4.592781083
1.40364E+18	0.108908545324446	-0.388161225643539	0.216420827247297	10.34601575	-0.326888333333333	-4.535575625
1.40364E+18	0.105417886820457	-0.383972435438752	0.198269403026556	10.20708821	-0.269682875	-4.46202575
1.40364E+18	0.106116018521255	-0.389557489045134	0.190589954317781	10.1008495	-0.253338458333333	-4.445681333
1.40364E+18	0.0984365698124802	-0.382576172037157	0.175231056900231	10.198916	-0.073549875	-4.666330958
1.40364E+18	0.0844739357965256	-0.372104196525191	0.161268422884276	10.198916	0.0898942916666667	-4.886980583
1.40364E+18	0.0586430628670095	-0.356745299107641	0.142418866962737	10.21526042	0.326888333333333	-5.074941375
1.40364E+18	0.0314159265358979	-0.344178928493282	0.131248759749974	9.937405333	0.310543916666667	-5.164835667
1.40364E+18	0.00767944870877505	-0.34487706019408	0.118682389135614	9.85568325	0.073549875	-5.303763208
1.40364E+18	-0.00628318530717959	-0.346273323595675	0.110304808726042	9.733100125	-0.179788583333333	-5.303763208
1.40364E+18	-0.0146607657167524	-0.349065850398866	0.108908545324446	9.798477792	-0.318716125	-5.360968667
1.40364E+18	-0.00139626340159546	-0.34766958699727	0.117286125734019	9.822994417	-0.473988083333333	-5.303763208
1.40364E+18	0.00977384381116825	-0.339990138288495	0.130550628049176	10.01095521	-0.44129925	-5.328279833
1.40364E+18	0.0265290046303138	-0.327423767674136	0.149400183970715	10.01912742	-0.531193541666667	-5.254729958
1.40364E+18	0.0383972435438752	-0.309970475154193	0.160570291183478	10.18257158	-0.588399	-5.222041125
1.40364E+18	0.0530580092606276	-0.291819050933452	0.169646003293849	10.07633288	-0.719154333333333	-5.091285792
1.40364E+18	0.0733038285837618	-0.277856416917497	0.176627320301826	10.15805496	-0.768187583333333	-4.993219292
1.40364E+18	0.0984365698124802	-0.261799387799149	0.176627320301826	10.05998846	-0.825393041666667	-4.95235825
1.40364E+18	0.118682389135614	-0.250629280586386	0.178023583703422	10.07633288	-0.710982125	-4.95235825
1.40364E+18	0.127758101245985	-0.231081592964049	0.168249739892253	10.04364404	-0.498504708333333	-5.034080333
1.40364E+18	0.134041286553164	-0.221307749152881	0.161966554585074	10.05181625	-0.261510666666667	-5.066769167
1.40364E+18	0.131248759749974	-0.200363798128949	0.152192710773906	9.937405333	-0.163444166666667	-5.107630208
1.40364E+18	0.122173047639603	-0.194080612821769	0.137531945057153	9.970094167	-0.073549875	-5.189352292
1.40364E+18	0.110304808726042	-0.176627320301826	0.122871179340401	9.937405333	-0.130755333333333	-5.181180083
1.40364E+18	0.0949459113084915	-0.17243853009704	0.0998328332140757	10.05181625	-0.0898942916666667	-5.189352292
1.40364E+18	0.078190750489346	-0.157777764380287	0.0795870138909414	10.14988275	-0.0653776666666667	-5.303763208
1.40364E+18	0.0726056968829641	-0.149400183970715	0.0642281164733913	10.14171054	-0.130755333333333	-5.328279833
1.40364E+18	0.0593411945678072	-0.136135681655558	0.0425860337486616	10.23977704	-0.171616375	-5.385485292
1.40364E+18	0.0565486677646163	-0.124965574442794	0.0328121899374934	10.2969825	-0.253338458333333	-5.385485292
1.40364E+18	0.057246799465414	-0.119380520836412	0.0237364778271229	10.41956562	-0.351404958333333	-5.336452042
1.40364E+18	0.0649262481741891	-0.111701072127637	0.0244346095279206	10.33784354	-0.572054583333333	-5.287418792
1.40364E+18	0.0788888821901437	-0.101927228316469	0.0251327412287183	10.42773783	-0.653776666666667	-5.262902167
1.40364E+18	0.0921533845053006	-0.0935496479068961	0.0342084533390889	10.42773783	-0.678293291666667	-5.262902167
1.40364E+18	0.103323491718064	-0.0823795406941324	0.0425860337486616	10.57483758	-0.621087833333333	-5.279246583
1.40364E+18	0.113097335529233	-0.0733038285837618	0.0481710873550435	10.55849317	-0.63743225	-5.254729958
1.40364E+18	0.115889862332423	-0.0579449311662117	0.0397935069454707	10.66473187	-0.506676916666667	-5.360968667
1.40364E+18	0.107512281922851	-0.0460766922526503	0.0376991118430775	10.591182	-0.408610416666667	-5.360968667
1.40364E+18	0.0970403064108847	-0.0376991118430775	0.020943951023932	10.69742071	-0.277855083333333	-5.44269075
1.40364E+18	0.0747000919853573	-0.0279252680319093	0.0146607657167524	10.61569863	-0.277855083333333	-5.467207375
1.40364E+18	0.0537561409614254	-0.0223402144255274	0.000698131700797732	10.64838746	-0.228821833333333	-5.508068417
1.40364E+18	0.0363028484414821	-0.0132645023151569	-0.0132645023151569	10.58300979	-0.204305208333333	-5.532585042
1.40364E+18	0.0195476876223365	-0.0146607657167524	-0.0293215314335047	10.68107629	-0.220649625	-5.573446083
1.40364E+18	0.00488692190558412	-0.00558505360638185	-0.0460766922526503	10.69742071	-0.261510666666667	-5.532585042
1.40364E+18	-0.00837758040957278	-0.0020943951023932	-0.0621337213709981	10.92624254	-0.212477416666667	-5.565273875
1.40364E+18	-0.0188495559215388	0.00767944870877505	-0.0767944870877505	10.85269267	-0.286027291666667	-5.532585042
1.40364E+18	-0.0237364778271229	0.00977384381116825	-0.0872664625997165	10.95893138	-0.261510666666667	-5.516240625
1.40364E+18	-0.0272271363311115	0.0216420827247297	-0.0907571211037051	10.86903708	-0.310543916666667	-5.483551792
1.40364E+18	-0.0237364778271229	0.0223402144255274	-0.0914552528045029	10.90172592	-0.384093791666667	-5.499896208
1.40364E+18	-0.0223402144255274	0.0321140582366957	-0.0949459113084915	10.83634825	-0.416782625	-5.475379583
1.40364E+18	-0.0132645023151569	0.0363028484414821	-0.096342174710087	10.83634825	-0.416782625	-5.450862958
1.40364E+18	-0.00488692190558412	0.0425860337486616	-0.101927228316469	10.79548721	-0.44129925	-5.483551792
1.40364E+18	0.00139626340159546	0.0425860337486616	-0.102625360017267	10.81183163	-0.400438208333333	-5.565273875
1.40364E+18	0.00488692190558412	0.0460766922526503	-0.105417886820457	10.79548721	-0.375921583333333	-5.524412833
1.40364E+18	0.00628318530717959	0.0383972435438752	-0.102625360017267	10.90989813	-0.351404958333333	-5.524412833
1.40364E+18	0.00628318530717959	0.0411897703470662	-0.102625360017267	10.93441475	-0.302371708333333	-5.548929458
1.40364E+18	0.0111701072127637	0.0342084533390889	-0.0942477796076938	11.03248125	-0.24516625	-5.483551792
1.40364E+18	0.00698131700797732	0.0349065850398866	-0.0907571211037051	11.15506437	-0.261510666666667	-5.54075725
1.40364E+18	0.00488692190558412	0.0314159265358979	-0.0865683308989187	11.179581	-0.318716125	-5.516240625
1.40364E+18	0.00139626340159546	0.0335103216382911	-0.0851720674973233	11.35119738	-0.286027291666667	-5.524412833
1.40364E+18	0.00349065850398866	0.0328121899374934	-0.0823795406941324	11.28581971	-0.286027291666667	-5.565273875
1.40364E+18	0.00279252680319093	0.0376991118430775	-0.0886627260013119	11.35936958	-0.236994041666667	-5.614307125
1.40364E+18	0.000698131700797732	0.0425860337486616	-0.0893608577021097	11.19592542	-0.261510666666667	-5.597962708
1.40364E+18	0.0020943951023932	0.046774823953448	-0.0893608577021097	11.179581	-0.228821833333333	-5.646995958
1.40364E+18	0.00488692190558412	0.0397935069454707	-0.0865683308989187	11.01613683	-0.253338458333333	-5.630651542
1.40364E+18	0.00488692190558412	0.0335103216382911	-0.0823795406941324	11.10603113	-0.228821833333333	-5.671512583
1.40364E+18	0.010471975511966	0.0293215314335047	-0.078190750489346	11.03248125	-0.228821833333333	-5.614307125
1.40364E+18	0.0125663706143592	0.0314159265358979	-0.0733038285837618	11.14689217	-0.163444166666667	-5.63882375
1.40364E+18	0.0174532925199433	0.0342084533390889	-0.0663225115757845	11.05699787	-0.187960791666667	-5.548929458
1.40364E+18	0.0188495559215388	0.0335103216382911	-0.0649262481741891	11.20409763	-0.0980665	-5.54075725
1.40364E+18	0.020943951023932	0.0370009801422798	-0.0565486677646163	11.12237554	-0.122583125	-5.499896208
1.40364E+18	0.0258308729295161	0.039095375244673	-0.0495673507566389	11.31850854	-0.114410916666667	-5.548929458
1.40364E+18	0.028623399732707	0.0397935069454707	-0.0376991118430775	11.17140879	-0.196133	-5.54075725
1.40364E+18	0.0411897703470662	0.0356047167406843	-0.0328121899374934	11.21226983	-0.228821833333333	-5.54075725
1.40364E+18	0.0488692190558412	0.0370009801422798	-0.0300196631343025	11.10603113	-0.269682875	-5.597962708
1.40364E+18	0.0509636141582344	0.0328121899374934	-0.0307177948351002	11.14689217	-0.138927541666667	-5.655168167
1.40364E+18	0.0502654824574367	0.0328121899374934	-0.0314159265358979	11.01613683	-0.073549875	-5.679684792
1.40364E+18	0.0523598775598299	0.028623399732707	-0.0356047167406843	11.05699787	-0.0408610416666667	-5.712373625
1.40364E+18	0.0509636141582344	0.0279252680319093	-0.0404916386462684	10.91807033	-0.0653776666666667	-5.687857
1.40364E+18	0.0488692190558412	0.0230383461263252	-0.0404916386462684	10.92624254	-0.04903325	-5.646995958
1.40364E+18	0.0481710873550435	0.0321140582366957	-0.0383972435438752	10.87720929	-0.114410916666667	-5.597962708
1.40364E+18	0.0495673507566389	0.0300196631343025	-0.0397935069454707	10.81183163	-0.122583125	-5.573446083
1.40364E+18	0.0530580092606276	0.0411897703470662	-0.0349065850398866	10.74645396	-0.138927541666667	-5.565273875
1.40364E+18	0.057246799465414	0.0453785605518526	-0.0251327412287183	10.76279838	-0.155271958333333	-5.54075725
1.40364E+18	0.0607374579694027	0.0516617458590322	-0.0216420827247297	10.73828175	-0.14709975	-5.508068417
1.40364E+18	0.0642281164733913	0.0621337213709981	-0.00418879020478639	10.64838746	-0.220649625	-5.434518542
1.40364E+18	0.0691150383789754	0.0712094334813687	0.00767944870877505	10.64021525	-0.220649625	-5.352796458
1.40364E+18	0.0726056968829641	0.0726056968829641	0.0216420827247297	10.64838746	-0.24516625	-5.287418792
1.40364E+18	0.0684169066781777	0.0823795406941324	0.0258308729295161	10.60752642	-0.14709975	-5.254729958
1.40364E+18	0.0663225115757845	0.0872664625997165	0.028623399732707	10.63204304	-0.00817220833333333	-5.238385542
1.40364E+18	0.0621337213709981	0.105417886820457	0.0230383461263252	10.73010954	0.0980665	-5.24655775
1.40364E+18	0.0488692190558412	0.114493598930828	0.0167551608191456	10.57483758	0.0572054583333333	-5.1975245
1.40364E+18	0.0370009801422798	0.129852496348378	0.00418879020478639	10.64838746	0.171616375	-5.164835667
1.40364E+18	0.0251327412287183	0.137531945057153	-0.00837758040957278	10.50945992	0.122583125	-5.099458
1.40364E+18	0.0153588974175501	0.145211393765928	-0.020943951023932	10.42773783	0.220649625	-5.074941375
1.40364E+18	0.00767944870877505	0.152192710773906	-0.0188495559215388	10.25612146	0.196133	-5.009563708
1.40364E+18	-0.00558505360638185	0.156381500978692	-0.0160570291183478	10.22343262	0.138927541666667	-5.0013915
1.40364E+18	-0.0111701072127637	0.164759081388265	-0.00139626340159546	10.12536612	-0.0163444166666667	-4.976874875
1.40364E+18	-0.00767944870877505	0.185004900711399	0.00907571211037051	10.13353833	-0.0572054583333333	-4.95235825
1.40364E+18	-0.00558505360638185	0.19687313962496	0.018151424220741	9.937405333	-0.155271958333333	-4.895152792
1.40364E+18	-0.000698131700797732	0.20943951023932	0.028623399732707	9.929233125	-0.163444166666667	-4.886980583
1.40364E+18	0.00558505360638185	0.225496539357667	0.0321140582366957	9.716755708	-0.138927541666667	-4.886980583
1.40364E+18	0.010471975511966	0.235270383168836	0.0370009801422798	9.692239083	-0.0980665	-4.878808375
1.40364E+18	0.0139626340159546	0.245742358680802	0.0495673507566389	9.536967125	-0.204305208333333	-4.829775125
1.40364E+18	0.0188495559215388	0.251327412287183	0.0600393262686049	9.602344792	-0.204305208333333	-4.797086292
1.40364E+18	0.0223402144255274	0.259704992696756	0.0747000919853573	9.528794917	-0.196133	-4.707192
1.40364E+18	0.0251327412287183	0.260403124397554	0.0879645943005142	9.594172583	-0.0980665	-4.65815875
1.40364E+18	0.0258308729295161	0.271573231610318	0.0900589894029074	9.692239083	-0.0572054583333333	-4.584608875
1.40364E+18	0.0202458193231342	0.284139602224677	0.0914552528045029	9.765788958	0.0163444166666667	-4.568264458
1.40364E+18	0.0132645023151569	0.305083553248609	0.0865683308989187	9.765788958	0.0408610416666667	-4.551920042
1.40364E+18	0.00488692190558412	0.31695179216217	0.0795870138909414	9.80665	0.073549875	-4.568264458
1.40364E+18	-0.00349065850398866	0.330914426178125	0.0691150383789754	9.692239083	0.114410916666667	-4.470197958
1.40364E+18	-0.0118682389135614	0.337895743186102	0.0642281164733913	9.626861417	0.14709975	-4.437509125
1.40364E+18	-0.0223402144255274	0.351858377202057	0.0530580092606276	9.520622708	0.0572054583333333	-4.4129925
1.40364E+18	-0.0272271363311115	0.351160245501259	0.0502654824574367	9.455245042	0.04903325	-4.347614833
1.40364E+18	-0.0293215314335047	0.36023595761163	0.0495673507566389	9.389867375	0.0	-4.388475875
1.40364E+18	-0.028623399732707	0.371406064824393	0.0579449311662117	9.308145292	-0.0980665	-4.396648083
1.40364E+18	-0.0223402144255274	0.38467056713955	0.0656243798749868	9.283628667	-0.14709975	-4.339442625
1.40364E+18	-0.0160570291183478	0.396538806053112	0.0830776723949301	9.087495667	-0.138927541666667	-4.26589275
1.40364E+18	-0.0118682389135614	0.413992098573055	0.0949459113084915	8.981256958	-0.114410916666667	-4.2168595
1.40364E+18	-0.00698131700797732	0.418879020478639	0.108908545324446	8.87501825	-0.0653776666666667	-4.175998458
1.40364E+18	-0.00139626340159546	0.42795473258901	0.104021623418862	8.866846042	-0.0163444166666667	-4.159654042
1.40364E+18	-0.00279252680319093	0.436332312998582	0.104021623418862	8.785123958	0.0898942916666667	-4.192342875
1.40364E+18	-0.00628318530717959	0.44331363000656	0.0970403064108847	8.834157208	0.236994041666667	-4.192342875
1.40364E+18	-0.0160570291183478	0.449596815313739	0.0886627260013119	8.785123958	0.335060541666667	-4.192342875
1.40364E+18	-0.0279252680319093	0.450294947014537	0.0712094334813687	9.046634625	0.449471458333333	-4.225031708
1.40364E+18	-0.0404916386462684	0.45238934211693	0.0558505360638185	9.07115125	0.384093791666667	-4.143309625
1.40364E+18	-0.0509636141582344	0.45238934211693	0.0321140582366957	9.349006333	0.302371708333333	-4.118793
1.40364E+18	-0.0530580092606276	0.45867252742411	0.0174532925199433	9.340834125	0.04903325	-4.0207265
1.40364E+18	-0.0488692190558412	0.45867252742411	0.00628318530717959	9.577828167	0.0163444166666667	-4.028898708
1.40364E+18	-0.0418879020478639	0.466351976132885	0.0125663706143592	9.536967125	-0.106238708333333	-4.012554292
1.40364E+18	-0.0370009801422798	0.472635161440064	0.0216420827247297	9.635033625	-0.14709975	-4.053415333
1.40364E+18	-0.0237364778271229	0.484503400353626	0.0335103216382911	9.504278292	-0.2941995	-4.094276375
1.40364E+18	-0.0125663706143592	0.500560429471974	0.0411897703470662	9.471589458	-0.318716125	-4.151481833
1.40364E+18	-0.00488692190558412	0.512428668385535	0.0516617458590322	9.136528917	-0.367749375	-4.102448583
1.40364E+18	0.00628318530717959	0.512428668385535	0.0516617458590322	8.948568125	-0.24516625	-4.102448583
1.40364E+18	0.00907571211037051	0.516617458590322	0.0481710873550435	8.687057458	-0.114410916666667	-4.0207265
1.40364E+18	0.00977384381116825	0.508938009881546	0.0474729556542458	8.572646542	-0.0572054583333333	-4.028898708
1.40364E+18	0.00698131700797732	0.508938009881546	0.0439822971502571	8.539957708	0.073549875	-3.988037667
1.40364E+18	0.00767944870877505	0.51103240498394	0.046774823953448	8.621679792	0.114410916666667	-4.012554292
1.40364E+18	0.00418879020478639	0.520806248795108	0.0474729556542458	8.564474333	0.122583125	-3.955348833
1.40364E+18	0.000698131700797732	0.519409985393512	0.0509636141582344	8.548129917	0.228821833333333	-3.97169325
1.40364E+18	-0.00907571211037051	0.527089434102287	0.0481710873550435	8.548129917	0.277855083333333	-3.963521042
1.40364E+18	-0.00907571211037051	0.527089434102287	0.0481710873550435	8.67888525	0.302371708333333	-3.92266
1.40364E+18	-0.0146607657167524	0.524995038999894	0.0460766922526503	8.719746292	0.220649625	-3.914487792
1.40364E+18	-0.0167551608191456	0.519409985393512	0.0453785605518526	8.793296167	0.130755333333333	-3.881798958
1.40364E+18	-0.0139626340159546	0.52010811709431	0.0446804288510548	8.850501625	0.024516625	-3.865454542
1.40364E+18	-0.00628318530717959	0.518013721991917	0.0516617458590322	8.858673833	-0.0898942916666667	-3.87362675
1.40364E+18	-0.0020943951023932	0.522900643897501	0.0614355896702004	9.022118	-0.073549875	-3.865454542
1.40364E+18	0.00139626340159546	0.518013721991917	0.06771877497738	8.899534875	-0.106238708333333	-3.783732458
1.40364E+18	0.00837758040957278	0.52010811709431	0.078190750489346	8.891362667	-0.155271958333333	-3.726527
1.40364E+18	0.0160570291183478	0.515221195188726	0.0956440430092893	8.703401875	-0.212477416666667	-3.6284605
1.40364E+18	0.0160570291183478	0.510334273283142	0.10471975511966	8.711574083	-0.130755333333333	-3.530394
1.40364E+18	0.0160570291183478	0.505447351377558	0.115889862332423	8.638024208	-0.0898942916666667	-3.424155292
1.40364E+18	0.0188495559215388	0.502654824574367	0.112399203828435	8.597163167	-0.0408610416666667	-3.440499708
1.40364E+18	0.0174532925199433	0.501258561172771	0.117286125734019	8.376513542	-0.0817220833333333	-3.326088792
1.40364E+18	0.0118682389135614	0.503352956275165	0.111002940426839	8.302963667	0.106238708333333	-3.244366708
1.40364E+18	0.00488692190558412	0.499164166070378	0.11379546723003	8.033280792	0.163444166666667	-3.170816833
1.40364E+18	-0.00139626340159546	0.493579112463996	0.103323491718064	7.99241975	0.269682875	-3.195333458
1.40364E+18	-0.00837758040957278	0.48939032225921	0.107512281922851	7.788114542	0.261510666666667	-3.146300208
1.40364E+18	-0.0153588974175501	0.476823951644851	0.103323491718064	7.755425708	0.261510666666667	-3.146300208
1.40364E+18	-0.0118682389135614	0.471937029739267	0.110304808726042	7.575637125	0.236994041666667	-3.080922542
1.40364E+18	-0.0132645023151569	0.459370659124908	0.112399203828435	7.641014792	0.24516625	-3.080922542
1.40364E+18	-0.0160570291183478	0.45238934211693	0.113097335529233	7.485742833	0.253338458333333	-3.031889292
1.40364E+18	-0.0223402144255274	0.444011761707357	0.106814150222053	7.559292708	0.326888333333333	-3.0400615
1.40364E+18	-0.0300196631343025	0.439822971502571	0.101927228316469	7.461226208	0.286027291666667	-2.941995
1.40364E+18	-0.0363028484414821	0.429350995990605	0.0921533845053006	7.575637125	0.302371708333333	-2.884789542
1.40364E+18	-0.0488692190558412	0.427256600888212	0.0928515162060983	7.534776083	0.106238708333333	-2.8439285
1.40364E+18	-0.0509636141582344	0.420275283880235	0.0928515162060983	7.575637125	-0.024516625	-2.754034208
1.40364E+18	-0.0502654824574367	0.413293966872257	0.0956440430092893	7.5511205	-0.171616375	-2.655967708
1.40364E+18	-0.046774823953448	0.402821991360291	0.10471975511966	7.575637125	-0.261510666666667	-2.492523542
1.40364E+18	-0.0349065850398866	0.397236937753909	0.124965574442794	7.5511205	-0.277855083333333	-2.410801458
1.40364E+18	-0.0293215314335047	0.389557489045134	0.145211393765928	7.534776083	-0.302371708333333	-2.353596
1.40364E+18	-0.0300196631343025	0.393048147549123	0.16615534478986	7.420365167	-0.302371708333333	-2.2555295
1.40364E+18	-0.0230383461263252	0.387463093942741	0.180816110506613	7.346815292	-0.277855083333333	-2.231012875
1.40364E+18	-0.018151424220741	0.387463093942741	0.18779742751459	7.167026708	-0.212477416666667	-2.165635208
1.40364E+18	-0.0244346095279206	0.381179908635562	0.191288086018579	6.970893708	-0.163444166666667	-2.214668458
1.40364E+18	-0.028623399732707	0.379783645233966	0.186401164112994	6.799277333	-0.114410916666667	-2.239185083
1.40364E+18	-0.0349065850398866	0.372104196525191	0.185703032412197	6.594972125	-0.00817220833333333	-2.247357292
1.40364E+18	-0.0383972435438752	0.365122879517214	0.18151424220741	6.537766667	0.04903325	-2.312734958
1.40364E+18	-0.0411897703470662	0.35395277230445	0.168947871593051	6.390666917	0.122583125	-2.296390542
1.40364E+18	-0.0460766922526503	0.346273323595675	0.145211393765928	6.3743225	0.179788583333333	-2.320907167
1.40364E+18	-0.0509636141582344	0.335103216382911	0.12007865253721	6.202706125	0.253338458333333	-2.337251583
1.40364E+18	-0.0551524043630208	0.32323497746935	0.0872664625997165	6.300772625	0.310543916666667	-2.329079375
1.40364E+18	-0.0586430628670095	0.307177948351002	0.06771877497738	6.219050542	0.204305208333333	-2.337251583
1.40364E+18	-0.0600393262686049	0.302291026445418	0.0481710873550435	6.333461458	0.0572054583333333	-2.361768208
1.40364E+18	-0.0558505360638185	0.295309709437441	0.0446804288510548	6.243567167	-0.179788583333333	-2.239185083
1.40364E+18	-0.046774823953448	0.28623399732707	0.0432841654494594	6.268083792	-0.261510666666667	-2.20649625
1.40364E+18	-0.0363028484414821	0.278554548618295	0.0481710873550435	6.112811833	-0.335060541666667	-2.092085333
1.40364E+18	-0.0307177948351002	0.272969495011913	0.0558505360638185	6.145500667	-0.326888333333333	-1.994018833
1.40364E+18	-0.0279252680319093	0.259704992696756	0.075398223686155	6.047434167	-0.34323275	-1.91229675
1.40364E+18	-0.0258308729295161	0.244346095279206	0.0893608577021097	6.1781895	-0.318716125	-1.879607917
1.40364E+18	-0.0293215314335047	0.238761041672824	0.0998328332140757	6.096467417	-0.286027291666667	-1.855091292
1.40364E+18	-0.0307177948351002	0.228289066160858	0.112399203828435	6.137328458	-0.163444166666667	-1.806058042
1.40364E+18	-0.0370009801422798	0.224100275956072	0.121474915938805	6.006573125	-0.114410916666667	-1.71616375
1.40364E+18	-0.0474729556542458	0.206646983436129	0.12915436464758	6.014745333	-0.0408610416666667	-1.732508167
1.40364E+18	-0.057246799465414	0.194778744522567	0.140324471860344	5.93302325	0.0163444166666667	-1.707991542
1.40364E+18	-0.0691150383789754	0.177325452002624	0.143815130364333	5.965712083	0.00817220833333333	-1.724335958
1.40364E+18	-0.075398223686155	0.165457213089062	0.140324471860344	5.908506625	-0.00817220833333333	-1.740680375
1.40364E+18	-0.0851720674973233	0.152192710773906	0.138928208458749	6.006573125	0.04903325	-1.8632635
1.40364E+18	-0.0928515162060983	0.140324471860344	0.127758101245985	5.990228708	0.0898942916666667	-1.928641167
1.40364E+18	-0.0949459113084915	0.122173047639603	0.113097335529233	5.990228708	0.130755333333333	-2.002191042
1.40364E+18	-0.0998328332140757	0.115889862332423	0.0886627260013119	5.924851042	0.130755333333333	-1.977674417
1.40364E+18	-0.100530964914873	0.0921533845053006	0.0621337213709981	5.957539875	0.106238708333333	-1.977674417
1.40364E+18	-0.0977384381116825	0.0747000919853573	0.0411897703470662	5.965712083	0.024516625	-1.928641167
1.40364E+18	-0.0900589894029074	0.0474729556542458	0.0272271363311115	6.063778583	-0.0326888333333333	-1.887780125
1.40364E+18	-0.0726056968829641	0.0293215314335047	0.0216420827247297	6.063778583	-0.130755333333333	-1.895952333
1.40364E+18	-0.0565486677646163	0.010471975511966	0.0300196631343025	6.055606375	-0.212477416666667	-1.830574667
1.40364E+18	-0.0411897703470662	0.00418879020478639	0.0376991118430775	6.080123	-0.220649625	-1.846919083
1.40364E+18	-0.0244346095279206	-0.00977384381116825	0.0453785605518526	6.039261958	-0.277855083333333	-1.830574667
1.40364E+18	-0.0111701072127637	-0.018151424220741	0.0516617458590322	6.039261958	-0.253338458333333	-1.846919083
1.40364E+18	-0.00558505360638185	-0.0349065850398866	0.0586430628670095	5.949367667	-0.261510666666667	-1.765197
1.40364E+18	-0.000698131700797732	-0.0509636141582344	0.0670206432765822	5.973884292	-0.155271958333333	-1.855091292
1.40364E+18	-0.00418879020478639	-0.0670206432765822	0.0733038285837618	5.875817792	-0.14709975	-1.8632635
1.40364E+18	-0.00767944870877505	-0.0788888821901437	0.0830776723949301	6.03108975	-0.155271958333333	-1.936813375
1.40364E+18	-0.0118682389135614	-0.0900589894029074	0.0921533845053006	6.055606375	-0.220649625	-1.928641167
1.40364E+18	-0.0111701072127637	-0.108908545324446	0.101927228316469	6.145500667	-0.228821833333333	-2.018535458
1.40364E+18	-0.0118682389135614	-0.117286125734019	0.111002940426839	6.194533917	-0.236994041666667	-2.026707667
1.40364E+18	-0.0118682389135614	-0.123569311041199	0.115889862332423	6.382494708	-0.253338458333333	-2.141118583
1.40364E+18	-0.00907571211037051	-0.132645023151569	0.115191730631626	6.42335575	-0.269682875	-2.165635208
1.40364E+18	-0.00349065850398866	-0.145909525466726	0.107512281922851	6.554111083	-0.236994041666667	-2.214668458
1.40364E+18	0.0020943951023932	-0.15079644737231	0.0991347015132779	6.488733417	-0.286027291666667	-2.239185083
1.40364E+18	0.010471975511966	-0.160570291183478	0.0914552528045029	6.644005375	-0.24516625	-2.198324042
1.40364E+18	0.0202458193231342	-0.173136661797837	0.0921533845053006	6.586799917	-0.310543916666667	-2.149290792
1.40364E+18	0.0363028484414821	-0.187099295813792	0.0949459113084915	6.701210833	-0.335060541666667	-2.10842975
1.40364E+18	0.0474729556542458	-0.194778744522567	0.106116018521255	6.742071875	-0.34323275	-2.100257542
1.40364E+18	0.0600393262686049	-0.202458193231342	0.117286125734019	7.052615792	-0.179788583333333	-2.231012875
1.40364E+18	0.06771877497738	-0.195476876223365	0.125663706143592	6.995410333	-0.114410916666667	-2.280046125
1.40364E+18	0.0663225115757845	-0.199665666428151	0.127758101245985	7.134337875	-0.14709975	-2.296390542
1.40364E+18	0.0621337213709981	-0.198269403026556	0.131248759749974	6.987238125	-0.253338458333333	-2.231012875
1.40364E+18	0.057246799465414	-0.204552588333735	0.129852496348378	7.052615792	-0.326888333333333	-2.271873917
1.40364E+18	0.0544542726622231	-0.203854456632938	0.120776784238008	7.085304625	-0.310543916666667	-2.40262925
1.40364E+18	0.0481710873550435	-0.20943951023932	0.109606677025244	7.240576583	-0.286027291666667	-2.557901208
1.40364E+18	0.0363028484414821	-0.205948851735331	0.0921533845053006	7.273265417	-0.236994041666667	-2.639623292
1.40364E+18	0.0265290046303138	-0.208043246837724	0.0788888821901437	7.248748792	-0.253338458333333	-2.639623292
1.40364E+18	0.018151424220741	-0.206646983436129	0.0579449311662117	7.265093208	-0.236994041666667	-2.6477955
1.40364E+18	0.0139626340159546	-0.222704012554476	0.0460766922526503	7.314126458	-0.24516625	-2.672312125
1.40364E+18	0.0160570291183478	-0.227590934460061	0.039095375244673	7.493915042	-0.277855083333333	-2.631451083
1.40364E+18	0.020943951023932	-0.240855436775218	0.0321140582366957	7.739081292	-0.302371708333333	-2.664139917
1.40364E+18	0.0251327412287183	-0.242251700176813	0.0293215314335047	7.959730917	-0.24516625	-2.729517583
1.40364E+18	0.0404916386462684	-0.238062909972027	0.0356047167406843	8.164036125	-0.187960791666667	-2.786723042
1.40364E+18	0.0474729556542458	-0.227590934460061	0.039095375244673	8.376513542	-0.0163444166666667	-2.901133958
1.40364E+18	0.0446804288510548	-0.221307749152881	0.0488692190558412	8.351996917	0.00817220833333333	-2.982856042
1.40364E+18	0.0453785605518526	-0.210137641940117	0.0593411945678072	8.38468575	0.0408610416666667	-3.080922542
1.40364E+18	0.0425860337486616	-0.213628300444106	0.0691150383789754	8.278447042	-0.00817220833333333	-3.080922542
1.40364E+18	0.0349065850398866	-0.212930168743308	0.0670206432765822	8.417374583	-0.024516625	-3.203505667
1.40364E+18	0.0237364778271229	-0.215024563845701	0.06771877497738	8.401030167	-0.0898942916666667	-3.28522775
1.40364E+18	0.0139626340159546	-0.223402144255274	0.0600393262686049	8.548129917	-0.122583125	-3.342433208
1.40364E+18	0.00488692190558412	-0.219911485751285	0.0474729556542458	8.507268875	-0.220649625	-3.309744375
1.40364E+18	-0.00418879020478639	-0.219213354050488	0.0293215314335047	8.605335375	-0.269682875	-3.301572167
1.40364E+18	-0.0118682389135614	-0.217118958948095	0.028623399732707	8.425546792	-0.34323275	-3.244366708
1.40364E+18	-0.0125663706143592	-0.214326432144904	0.0230383461263252	8.490924458	-0.2941995	-3.18716125
1.40364E+18	-0.0139626340159546	-0.212930168743308	0.0195476876223365	8.417374583	-0.2941995	-3.064578125
1.40364E+18	-0.0118682389135614	-0.20943951023932	0.0132645023151569	8.515441083	-0.277855083333333	-3.023717083
1.40364E+18	-0.00767944870877505	-0.21223203704251	0.0160570291183478	8.368341333	-0.286027291666667	-2.974683833
1.40364E+18	0.00418879020478639	-0.217118958948095	0.0174532925199433	8.548129917	-0.269682875	-2.99102825
1.40364E+18	0.0153588974175501	-0.217817090648892	0.0244346095279206	8.539957708	-0.335060541666667	-2.974683833
1.40364E+18	0.0321140582366957	-0.217817090648892	0.0321140582366957	8.662540833	-0.261510666666667	-3.129955792
1.40364E+18	0.0432841654494594	-0.21223203704251	0.0551524043630208	8.711574083	-0.24516625	-3.219850083
1.40364E+18	0.0502654824574367	-0.211533905341713	0.0816814089933346	8.883190458	-0.236994041666667	-3.366949833
1.40364E+18	0.0586430628670095	-0.20315632493214	0.0998328332140757	8.834157208	-0.236994041666667	-3.473188542
1.40364E+18	0.0649262481741891	-0.203854456632938	0.110304808726042	8.948568125	-0.326888333333333	-3.6284605
1.40364E+18	0.0698131700797732	-0.202458193231342	0.117286125734019	8.87501825	-0.44129925	-3.652977125
1.40364E+18	0.0712094334813687	-0.206646983436129	0.110304808726042	8.858673833	-0.514849125	-3.726527
1.40364E+18	0.0774926187885482	-0.21223203704251	0.0942477796076938	8.785123958	-0.604743416666667	-3.759215833
1.40364E+18	0.0788888821901437	-0.221307749152881	0.0851720674973233	8.736090708	-0.596571208333333	-3.710182583
1.40364E+18	0.0767944870877505	-0.222704012554476	0.0788888821901437	8.719746292	-0.555710166666667	-3.685665958
1.40364E+18	0.078190750489346	-0.228987197861656	0.0795870138909414	8.621679792	-0.473988083333333	-3.661149333
1.40364E+18	0.0747000919853573	-0.229685329562454	0.0830776723949301	8.711574083	-0.302371708333333	-3.587599458
1.40364E+18	0.0726056968829641	-0.240855436775218	0.0921533845053006	8.760607333	-0.326888333333333	-3.424155292
1.40364E+18	0.0747000919853573	-0.256214334192768	0.0998328332140757	8.793296167	-0.2941995	-3.293399958
1.40364E+18	0.0830776723949301	-0.272969495011913	0.104021623418862	8.883190458	-0.326888333333333	-3.113611375
1.40364E+18	0.0865683308989187	-0.28623399732707	0.10471975511966	9.144701125	-0.261510666666667	-3.121783583
1.40364E+18	0.0914552528045029	-0.304385421547811	0.10471975511966	9.26728425	-0.14709975	-3.105439167
1.40364E+18	0.0935496479068961	-0.3078760800518	0.102625360017267	9.479761667	-0.0572054583333333	-3.18716125
1.40364E+18	0.0928515162060983	-0.307177948351002	0.106814150222053	9.414384	-0.0326888333333333	-3.277055542
1.40364E+18	0.0907571211037051	-0.305083553248609	0.115191730631626	9.430728417	-0.0817220833333333	-3.424155292
1.40364E+18	0.0865683308989187	-0.306479816650204	0.122173047639603	9.128356708	-0.155271958333333	-3.505877375
1.40364E+18	0.085870199198121	-0.312763001957384	0.126361837844389	9.038462417	-0.163444166666667	-3.620288292
1.40364E+18	0.0767944870877505	-0.321838714067754	0.128456232946783	8.752435125	-0.24516625	-3.759215833
1.40364E+18	0.0705113017805709	-0.339292006587698	0.123569311041199	8.703401875	-0.236994041666667	-3.849110125
1.40364E+18	0.0600393262686049	-0.35395277230445	0.115889862332423	8.597163167	-0.2941995	-3.849110125
1.40364E+18	0.0509636141582344	-0.370009801422798	0.115889862332423	8.662540833	-0.204305208333333	-3.87362675
1.40364E+18	0.0446804288510548	-0.377689250131573	0.116587994033221	8.597163167	-0.261510666666667	-3.77556025
1.40364E+18	0.0453785605518526	-0.388859357344337	0.124267442741996	8.768779542	-0.277855083333333	-3.734699208
1.40364E+18	0.0502654824574367	-0.393048147549123	0.138928208458749	8.77695175	-0.326888333333333	-3.6284605
1.40364E+18	0.0614355896702004	-0.4000294645571	0.164060949687467	9.022118	-0.326888333333333	-3.571255042
1.40364E+18	0.0705113017805709	-0.402123859659494	0.178023583703422	9.112012292	-0.2941995	-3.514049583
1.40364E+18	0.0851720674973233	-0.409105176667471	0.189891822616983	9.291800875	-0.24516625	-3.514049583
1.40364E+18	0.0942477796076938	-0.404916386462684	0.202458193231342	9.324489708	-0.24516625	-3.554910625
1.40364E+18	0.0991347015132779	-0.407010781565078	0.203854456632938	9.406211792	-0.220649625	-3.652977125
1.40364E+18	0.0949459113084915	-0.401425727958696	0.199665666428151	9.26728425	-0.163444166666667	-3.751043625
1.40364E+18	0.0844739357965256	-0.404218254761887	0.18779742751459	9.259112042	-0.204305208333333	-3.906315583
1.40364E+18	0.0747000919853573	-0.397935069454707	0.177325452002624	9.136528917	-0.302371708333333	-4.028898708
1.40364E+18	0.0705113017805709	-0.409803308368269	0.162664686285871	9.07115125	-0.416782625	-4.143309625
1.40364E+18	0.0593411945678072	-0.407010781565078	0.150098315671512	9.013945792	-0.465815875	-4.241376125
1.40364E+18	0.0495673507566389	-0.409105176667471	0.13543754995476	9.095667875	-0.44129925	-4.306753792
1.40364E+18	0.0397935069454707	-0.410501440069066	0.127758101245985	9.177389958	-0.351404958333333	-4.355787042
1.40364E+18	0.028623399732707	-0.409105176667471	0.12915436464758	9.3163175	-0.302371708333333	-4.347614833
1.40364E+18	0.020943951023932	-0.404916386462684	0.136135681655558	9.520622708	-0.326888333333333	-4.355787042
1.40364E+18	0.0223402144255274	-0.404916386462684	0.156381500978692	9.626861417	-0.408610416666667	-4.274064958
1.40364E+18	0.0293215314335047	-0.395142542651516	0.174532925199433	9.937405333	-0.375921583333333	-4.274064958
1.40364E+18	0.0446804288510548	-0.385368698840348	0.197571271325758	10.01095521	-0.367749375	-4.225031708
1.40364E+18	0.0537561409614254	-0.371406064824393	0.198269403026556	10.14988275	-0.326888333333333	-4.208687292
1.40364E+18	0.0635299847725936	-0.365821011218011	0.201061929829747	10.09267729	-0.310543916666667	-4.257720542
1.40364E+18	0.0656243798749868	-0.346971455296473	0.200363798128949	10.08450508	-0.269682875	-4.429336917
1.40364E+18	0.0670206432765822	-0.333008821280518	0.198967534727354	9.863855458	-0.220649625	-4.502886792
1.40364E+18	0.0607374579694027	-0.321838714067754	0.191986217719376	9.798477792	-0.155271958333333	-4.633642125
1.40364E+18	0.0551524043630208	-0.306479816650204	0.191986217719376	9.545139333	-0.204305208333333	-4.600953292
1.40364E+18	0.046774823953448	-0.303687289847013	0.184306769010601	9.447072833	-0.187960791666667	-4.666330958
1.40364E+18	0.0376991118430775	-0.296705972839036	0.178023583703422	9.234595417	-0.212477416666667	-4.625469917
1.40364E+18	0.0265290046303138	-0.295309709437441	0.166853476490658	9.308145292	-0.114410916666667	-4.674503167
1.40364E+18	0.0195476876223365	-0.284139602224677	0.157777764380287	9.340834125	-0.163444166666667	-4.592781083
1.40364E+18	0.0125663706143592	-0.279252680319093	0.142418866962737	9.577828167	-0.106238708333333	-4.519231208
1.40364E+18	0.00698131700797732	-0.265290046303138	0.14451326206513	9.626861417	-0.106238708333333	-4.4129925
1.40364E+18	0.010471975511966	-0.257610597594363	0.145211393765928	9.921060917	-0.0898942916666667	-4.437509125
1.40364E+18	0.0174532925199433	-0.245044226980004	0.147305788868321	10.05181625	-0.138927541666667	-4.372131458
1.40364E+18	0.0223402144255274	-0.238761041672824	0.152192710773906	10.36236017	-0.187960791666667	-4.339442625
1.40364E+18	0.0356047167406843	-0.226194671058465	0.167551608191456	10.53397654	-0.24516625	-4.36395925
1.40364E+18	0.0495673507566389	-0.226194671058465	0.177325452002624	10.68107629	-0.277855083333333	-4.404820292
1.40364E+18	0.0628318530717959	-0.217118958948095	0.189891822616983	10.71376513	-0.220649625	-4.494714583
1.40364E+18	0.0733038285837618	-0.211533905341713	0.196175007924163	10.82817604	-0.155271958333333	-4.625469917
1.40364E+18	0.078190750489346	-0.201061929829747	0.20315632493214	10.85269267	-0.122583125	-4.699019792
1.40364E+18	0.0802851455917391	-0.189193690916185	0.198967534727354	10.73010954	-0.130755333333333	-4.780741875
1.40364E+18	0.0802851455917391	-0.171042266695444	0.193382481120972	10.50128771	-0.130755333333333	-4.895152792
1.40364E+18	0.0823795406941324	-0.167551608191456	0.180816110506613	10.36236017	-0.130755333333333	-4.95235825
1.40364E+18	0.0830776723949301	-0.162664686285871	0.164759081388265	10.16622717	-0.0980665	-5.034080333
1.40364E+18	0.0830776723949301	-0.158475896081085	0.150098315671512	10.01095521	-0.00817220833333333	-5.140319042
1.40364E+18	0.0747000919853573	-0.154287105876299	0.125663706143592	10.02729963	0.0653776666666667	-5.238385542
1.40364E+18	0.0705113017805709	-0.148702052269917	0.106814150222053	10.07633288	0.0	-5.311935417
1.40364E+18	0.0642281164733913	-0.143815130364333	0.078190750489346	10.23160483	-0.0898942916666667	-5.377313083
1.40364E+18	0.0628318530717959	-0.143815130364333	0.0607374579694027	10.23977704	-0.14709975	-5.303763208
1.40364E+18	0.0656243798749868	-0.142418866962737	0.0446804288510548	10.52580433	-0.0898942916666667	-5.360968667
1.40364E+18	0.0642281164733913	-0.138928208458749	0.0411897703470662	10.67290408	-0.024516625	-5.34462425
1.40364E+18	0.0593411945678072	-0.132645023151569	0.0328121899374934	11.13871996	0.0653776666666667	-5.401829708
1.40364E+18	0.0537561409614254	-0.129852496348378	0.028623399732707	11.26947529	0.0408610416666667	-5.377313083
1.40364E+18	0.0411897703470662	-0.127059969545187	0.0160570291183478	11.53098596	0.0817220833333333	-5.3936575
1.40364E+18	0.0342084533390889	-0.119380520836412	0.00558505360638185	11.54733038	0.0326888333333333	-5.352796458
1.40364E+18	0.0174532925199433	-0.12007865253721	-0.00977384381116825	11.68625792	0.122583125	-5.401829708
1.40364E+18	0.00628318530717959	-0.119380520836412	-0.020943951023932	11.53098596	0.0653776666666667	-5.426346333
1.40364E+18	-0.00418879020478639	-0.12007865253721	-0.0349065850398866	11.49829713	0.122583125	-5.467207375
1.40364E+18	-0.018151424220741	-0.117984257434817	-0.0502654824574367	11.2776475	-0.04903325	-5.459035167
1.40364E+18	-0.0300196631343025	-0.123569311041199	-0.0663225115757845	11.21226983	-0.0898942916666667	-5.524412833
1.40364E+18	-0.0376991118430775	-0.121474915938805	-0.0747000919853573	10.99162021	-0.196133	-5.557101667
1.40364E+18	-0.0411897703470662	-0.12915436464758	-0.0795870138909414	10.99162021	-0.286027291666667	-5.630651542
1.40364E+18	-0.0446804288510548	-0.127059969545187	-0.0830776723949301	10.90989813	-0.318716125	-5.63882375
1.40364E+18	-0.0523598775598299	-0.130550628049176	-0.0900589894029074	11.05699787	-0.286027291666667	-5.704201417
1.40364E+18	-0.0558505360638185	-0.131248759749974	-0.0921533845053006	11.05699787	-0.34323275	-5.704201417
1.40364E+18	-0.0565486677646163	-0.134739418253962	-0.0991347015132779	11.12237554	-0.392266	-5.655168167
1.40364E+18	-0.0537561409614254	-0.134041286553164	-0.0935496479068961	11.22861425	-0.433127041666667	-5.630651542
1.40364E+18	-0.0488692190558412	-0.136833813356355	-0.0851720674973233	11.42474725	-0.400438208333333	-5.573446083
1.40364E+18	-0.0404916386462684	-0.129852496348378	-0.0698131700797732	11.49829713	-0.359577166666667	-5.597962708
1.40364E+18	-0.0300196631343025	-0.12915436464758	-0.0530580092606276	11.68625792	-0.277855083333333	-5.630651542
1.40364E+18	-0.0237364778271229	-0.122871179340401	-0.0411897703470662	11.83335767	-0.187960791666667	-5.679684792
1.40364E+18	-0.0167551608191456	-0.122871179340401	-0.0349065850398866	11.75163558	-0.0898942916666667	-5.630651542
1.40364E+18	-0.0146607657167524	-0.120776784238008	-0.039095375244673	11.77615221	-0.00817220833333333	-5.622479333
1.40364E+18	-0.0160570291183478	-0.125663706143592	-0.046774823953448	11.70260233	0.04903325	-5.565273875
1.40364E+18	-0.0174532925199433	-0.130550628049176	-0.0544542726622231	11.67808571	0.04903325	-5.5897905
1.40364E+18	-0.018151424220741	-0.136833813356355	-0.0488692190558412	11.6699135	0.073549875	-5.646995958
1.40364E+18	-0.0174532925199433	-0.138928208458749	-0.0544542726622231	11.79249662	0.0326888333333333	-5.720545833
1.40364E+18	-0.0146607657167524	-0.141022603561142	-0.0565486677646163	11.75980779	-0.0408610416666667	-5.745062458
1.40364E+18	-0.0153588974175501	-0.145909525466726	-0.0691150383789754	11.84970208	-0.0898942916666667	-5.802267917
1.40364E+18	-0.0139626340159546	-0.149400183970715	-0.0670206432765822	11.73529117	-0.130755333333333	-5.7859235
1.40364E+18	-0.0118682389135614	-0.152192710773906	-0.0705113017805709	11.8660465	-0.155271958333333	-5.859473375
1.40364E+18	-0.0111701072127637	-0.151494579073108	-0.0523598775598299	11.83335767	-0.253338458333333	-5.83495675
1.40364E+18	-0.00279252680319093	-0.151494579073108	-0.0349065850398866	12.03766287	-0.277855083333333	-5.900334417
1.40364E+18	0.00558505360638185	-0.142418866962737	-0.0111701072127637	12.00497404	-0.392266	-5.949367667
1.40364E+18	0.010471975511966	-0.12915436464758	0.018151424220741	12.11938496	-0.359577166666667	-6.063778583
1.40364E+18	0.020943951023932	-0.115889862332423	0.0446804288510548	12.03766287	-0.375921583333333	-6.055606375
1.40364E+18	0.0265290046303138	-0.107512281922851	0.0502654824574367	12.01314625	-0.2941995	-6.153672875
1.40364E+18	0.0279252680319093	-0.096342174710087	0.0530580092606276	11.71894675	-0.286027291666667	-6.104639625
1.40364E+18	0.0230383461263252	-0.0865683308989187	0.0544542726622231	11.60453583	-0.220649625	-6.12915625
1.40364E+18	0.0244346095279206	-0.0851720674973233	0.0565486677646163	11.35936958	-0.212477416666667	-6.088295208
1.40364E+18	0.028623399732707	-0.0809832772925369	0.057246799465414	11.28581971	-0.14709975	-6.071950792
1.40364E+18	0.0244346095279206	-0.0733038285837618	0.0607374579694027	11.13054775	-0.187960791666667	-6.006573125
1.40364E+18	0.0272271363311115	-0.0642281164733913	0.0656243798749868	11.21226983	-0.163444166666667	-6.014745333
1.40364E+18	0.0251327412287183	-0.0530580092606276	0.0621337213709981	11.18775321	-0.204305208333333	-5.965712083
1.40364E+18	0.0293215314335047	-0.0418879020478639	0.0551524043630208	11.22861425	-0.138927541666667	-5.924851042
1.40364E+18	0.0328121899374934	-0.0244346095279206	0.0530580092606276	11.14689217	-0.187960791666667	-5.843128958
1.40364E+18	0.0314159265358979	-0.00977384381116825	0.0481710873550435	11.179581	-0.196133	-5.794095708
1.40364E+18	0.0328121899374934	0.00558505360638185	0.0446804288510548	11.12237554	-0.163444166666667	-5.761406875
1.40364E+18	0.0349065850398866	0.00907571211037051	0.0495673507566389	11.14689217	-0.228821833333333	-5.720545833
1.40364E+18	0.0314159265358979	0.0279252680319093	0.0481710873550435	11.01613683	-0.204305208333333	-5.663340375
1.40364E+18	0.0314159265358979	0.0356047167406843	0.0649262481741891	10.92624254	-0.155271958333333	-5.614307125
1.40364E+18	0.0258308729295161	0.0488692190558412	0.078190750489346	10.90172592	-0.04903325	-5.597962708
1.40364E+18	0.020943951023932	0.0621337213709981	0.085870199198121	10.75462617	-0.0408610416666667	-5.491724
1.40364E+18	0.0118682389135614	0.0740019602845596	0.0879645943005142	10.73010954	-0.00817220833333333	-5.3936575
1.40364E+18	0.00628318530717959	0.0851720674973233	0.0935496479068961	10.52580433	-0.0163444166666667	-5.311935417
1.40364E+18	0.00418879020478639	0.0998328332140757	0.085870199198121	10.40322121	0.0572054583333333	-5.1975245
1.40364E+18	-0.00628318530717959	0.110304808726042	0.0823795406941324	10.27246588	0.106238708333333	-5.107630208
1.40364E+18	-0.0188495559215388	0.122173047639603	0.0740019602845596	10.23977704	0.163444166666667	-5.107630208
1.40364E+18	-0.0244346095279206	0.134739418253962	0.0670206432765822	10.14171054	0.106238708333333	-5.074941375
1.40364E+18	-0.0349065850398866	0.145211393765928	0.0530580092606276	10.23977704	0.130755333333333	-5.034080333
1.40364E+18	-0.0460766922526503	0.151494579073108	0.0349065850398866	10.09267729	0.04903325	-4.944186042
1.40364E+18	-0.0544542726622231	0.159174027781883	0.0174532925199433	10.14988275	0.138927541666667	-4.95235825
1.40364E+18	-0.0586430628670095	0.160570291183478	0.0020943951023932	10.08450508	0.114410916666667	-4.903325
1.40364E+18	-0.0705113017805709	0.164060949687467	0.00488692190558412	10.198916	0.114410916666667	-4.878808375
1.40364E+18	-0.0795870138909414	0.168947871593051	0.00628318530717959	10.1008495	0.0572054583333333	-4.8052585
1.40364E+18	-0.0865683308989187	0.175231056900231	0.0139626340159546	10.23160483	0.0898942916666667	-4.764397458
1.40364E+18	-0.0956440430092893	0.188495559215388	0.0272271363311115	10.20708821	0.138927541666667	-4.739880833
1.40364E+18	-0.101927228316469	0.198269403026556	0.0321140582366957	10.30515471	0.236994041666667	-4.699019792
1.40364E+18	-0.12915436464758	0.208741378538522	0.0321140582366957	10.13353833	0.277855083333333	-4.65815875
1.40364E+18	-0.143116998663535	0.219213354050488	0.0293215314335047	10.14171054	0.2941995	-4.625469917
1.40364E+18	-0.154287105876299	0.224100275956072	0.0321140582366957	9.921060917	0.187960791666667	-4.568264458
1.40364E+18	-0.162664686285871	0.228987197861656	0.0307177948351002	9.888372083	0.212477416666667	-4.576436667
1.40364E+18	-0.176627320301826	0.23387411976724	0.0279252680319093	9.765788958	0.220649625	-4.568264458
1.40364E+18	-0.194080612821769	0.236666646570431	0.0251327412287183	9.880199875	0.212477416666667	-4.584608875
1.40364E+18	-0.206646983436129	0.245044226980004	0.0153588974175501	9.839338833	0.106238708333333	-4.617297708
1.40364E+18	-0.21223203704251	0.249931148885588	0.0020943951023932	9.839338833	0.0898942916666667	-4.699019792
1.40364E+18	-0.217817090648892	0.257610597594363	-0.0202458193231342	9.782133375	0.0817220833333333	-4.625469917
1.40364E+18	-0.222005880853679	0.254818070791172	-0.0397935069454707	9.765788958	0.14709975	-4.666330958
1.40364E+18	-0.237364778271229	0.263195651200745	-0.0579449311662117	9.7085835	0.155271958333333	-4.649986542
1.40364E+18	-0.245044226980004	0.27087509990952	-0.0670206432765822	9.675894667	0.212477416666667	-4.666330958
1.40364E+18	-0.254119939090374	0.2771582852167	-0.0663225115757845	9.545139333	0.261510666666667	-4.699019792
1.40364E+18	-0.263195651200745	0.281347075421486	-0.0663225115757845	9.46341725	0.220649625	-4.715364208
1.40364E+18	-0.272969495011913	0.289724655831059	-0.0698131700797732	9.389867375	0.163444166666667	-4.715364208
1.40364E+18	-0.277856416917497	0.293215314335047	-0.0740019602845596	9.291800875	0.0898942916666667	-4.682675375
1.40364E+18	-0.279252680319093	0.3078760800518	-0.0802851455917391	9.324489708	0.0	-4.699019792
1.40364E+18	-0.2771582852167	0.312064870256586	-0.0830776723949301	9.16921775	-0.179788583333333	-4.707192
1.40364E+18	-0.272969495011913	0.314159265358979	-0.0816814089933346	9.144701125	-0.326888333333333	-4.788914083
1.40364E+18	-0.257610597594363	0.319046187264563	-0.0628318530717959	8.9240515	-0.482160291666667	-4.682675375
1.40364E+18	-0.240855436775218	0.319046187264563	-0.0293215314335047	8.915879292	-0.547537958333333	-4.6091255
1.40364E+18	-0.215024563845701	0.315555528760575	0.0125663706143592	8.801468375	-0.531193541666667	-4.502886792
1.40364E+18	-0.196175007924163	0.316253660461372	0.0474729556542458	8.899534875	-0.465815875	-4.486542375
1.40364E+18	-0.18151424220741	0.322536845768552	0.0684169066781777	8.956740333	-0.44129925	-4.470197958
1.40364E+18	-0.175231056900231	0.329518162776529	0.0691150383789754	9.152873333	-0.351404958333333	-4.453853542
1.40364E+18	-0.168947871593051	0.327423767674136	0.0565486677646163	9.087495667	-0.236994041666667	-4.380303667
1.40364E+18	-0.168249739892253	0.326725635973338	0.0328121899374934	9.177389958	-0.122583125	-4.355787042
1.40364E+18	-0.165457213089062	0.321838714067754	0.010471975511966	9.062979042	-0.073549875	-4.282237167
1.40364E+18	-0.161966554585074	0.314159265358979	-0.00279252680319093	9.250939833	0.0326888333333333	-4.339442625
1.40364E+18	-0.168249739892253	0.311366738555788	-0.00628318530717959	9.226423208	0.0326888333333333	-4.396648083
1.40364E+18	-0.164759081388265	0.307177948351002	-0.00698131700797732	9.389867375	0.04903325	-4.519231208
1.40364E+18	-0.159872159482681	0.316253660461372	-0.00488692190558412	9.332661917	-0.0572054583333333	-4.535575625
1.40364E+18	-0.148702052269917	0.317649923862968	0.00488692190558412	9.36535075	-0.0408610416666667	-4.511059
1.40364E+18	-0.146607657167524	0.325329372571743	0.0167551608191456	9.136528917	-0.04903325	-4.494714583
1.40364E+18	-0.14451326206513	0.320442450666159	0.0258308729295161	9.062979042	-0.0980665	-4.46202575
1.40364E+18	-0.141022603561142	0.317649923862968	0.0321140582366957	8.834157208	-0.228821833333333	-4.437509125
1.40364E+18	-0.133343154852367	0.312763001957384	0.0432841654494594	8.817812792	-0.326888333333333	-4.4129925
1.40364E+18	-0.122871179340401	0.311366738555788	0.0642281164733913	8.670713042	-0.4903325	-4.298581583
1.40364E+18	-0.10471975511966	0.302989158146216	0.0949459113084915	8.556302125	-0.506676916666667	-4.192342875
1.40364E+18	-0.0851720674973233	0.304385421547811	0.132645023151569	8.343824708	-0.457643666666667	-4.053415333
1.40364E+18	-0.0663225115757845	0.294611577736643	0.176627320301826	8.237586	-0.433127041666667	-3.840937917
1.40364E+18	-0.0502654824574367	0.284837733925475	0.226194671058465	8.213069375	-0.408610416666667	-3.742871417
1.40364E+18	-0.0307177948351002	0.271573231610318	0.268082573106329	8.302963667	-0.277855083333333	-3.702010375
1.40364E+18	-0.0146607657167524	0.265290046303138	0.305781684949407	8.376513542	-0.130755333333333	-3.710182583
1.40364E+18	-0.00558505360638185	0.257610597594363	0.328820031075732	8.605335375	0.0408610416666667	-3.77556025
1.40364E+18	-0.00698131700797732	0.24923301718479	0.327423767674136	8.899534875	0.261510666666667	-3.840937917
1.40364E+18	-0.0125663706143592	0.238062909972027	0.303687289847013	9.16921775	0.457643666666667	-3.914487792
1.40364E+18	-0.0251327412287183	0.228987197861656	0.260403124397554	9.447072833	0.596571208333333	-4.077931958
1.40364E+18	-0.0383972435438752	0.217817090648892	0.217817090648892	9.479761667	0.588399	-4.159654042
1.40364E+18	-0.046774823953448	0.20315632493214	0.180816110506613	9.569655958	0.678293291666667	-4.274064958
1.40364E+18	-0.0537561409614254	0.182910505609006	0.159872159482681	9.357178542	0.572054583333333	-4.26589275
1.40364E+18	-0.0642281164733913	0.169646003293849	0.150098315671512	9.275456458	0.482160291666667	-4.233203917
1.40364E+18	-0.0726056968829641	0.151494579073108	0.153588974175501	9.013945792	0.318716125	-4.200515083
1.40364E+18	-0.0774926187885482	0.142418866962737	0.149400183970715	9.005773583	0.24516625	-4.233203917
1.40364E+18	-0.0844739357965256	0.14172073526194	0.151494579073108	8.793296167	0.212477416666667	-4.151481833
1.40364E+18	-0.0872664625997165	0.14451326206513	0.149400183970715	8.67888525	0.196133	-4.077931958
1.40364E+18	-0.0942477796076938	0.143815130364333	0.157777764380287	8.343824708	0.0817220833333333	-3.914487792
1.40364E+18	-0.0998328332140757	0.142418866962737	0.165457213089062	8.28661925	-0.0408610416666667	-3.840937917
1.40364E+18	-0.101927228316469	0.136833813356355	0.185703032412197	8.098658458	-0.155271958333333	-3.840937917
1.40364E+18	-0.096342174710087	0.130550628049176	0.208043246837724	8.213069375	-0.24516625	-3.889971167
1.40364E+18	-0.0879645943005142	0.136135681655558	0.234572251468038	8.172208333	-0.302371708333333	-3.881798958
1.40364E+18	-0.075398223686155	0.134041286553164	0.260403124397554	8.245758208	-0.34323275	-3.881798958
1.40364E+18	-0.0670206432765822	0.136833813356355	0.283441470523879	8.213069375	-0.433127041666667	-3.857282333
1.40364E+18	-0.0537561409614254	0.138230076757951	0.304385421547811	8.28661925	-0.392266	-3.889971167
1.40364E+18	-0.0432841654494594	0.145211393765928	0.32323497746935	8.09048625	-0.34323275	-3.840937917
1.40364E+18	-0.0342084533390889	0.146607657167524	0.330216294477327	8.098658458	-0.187960791666667	-3.906315583
1.40364E+18	-0.0328121899374934	0.152890842474703	0.337197611485304	7.984247542	0.00817220833333333	-3.914487792
1.40364E+18	-0.0349065850398866	0.149400183970715	0.333706952981316	8.049625208	0.212477416666667	-3.963521042
1.40364E+18	-0.0439822971502571	0.154985237577096	0.307177948351002	8.057797417	0.34323275	-3.97169325
1.40364E+18	-0.057246799465414	0.152192710773906	0.269478836507924	8.098658458	0.384093791666667	-3.889971167
1.40364E+18	-0.0670206432765822	0.149400183970715	0.231779724664847	8.065969625	0.400438208333333	-3.791904667
1.40364E+18	-0.0684169066781777	0.136135681655558	0.205250720034533	8.000591958	0.359577166666667	-3.67749375
1.40364E+18	-0.0628318530717959	0.141022603561142	0.18779742751459	7.918869875	0.269682875	-3.563082833
1.40364E+18	-0.0537561409614254	0.143815130364333	0.189193690916185	7.861664417	0.0572054583333333	-3.57942725
1.40364E+18	-0.0425860337486616	0.154985237577096	0.191986217719376	7.812631167	-0.114410916666667	-3.522221792
1.40364E+18	-0.020943951023932	0.16615534478986	0.199665666428151	7.665531417	-0.2941995	-3.497705167
1.40364E+18	-0.00558505360638185	0.18151424220741	0.203854456632938	7.453054	-0.424954833333333	-3.473188542
1.40364E+18	0.010471975511966	0.189193690916185	0.211533905341713	7.142510083	-0.375921583333333	-3.38329425
1.40364E+18	0.0153588974175501	0.186401164112994	0.219911485751285	7.003582542	-0.310543916666667	-3.342433208
1.40364E+18	0.0146607657167524	0.182910505609006	0.233175988066442	6.709383042	-0.2941995	-3.268883333
1.40364E+18	0.0125663706143592	0.183608637309803	0.244346095279206	6.701210833	-0.2941995	-3.260711125
1.40364E+18	0.00837758040957278	0.188495559215388	0.259704992696756	6.578627708	-0.302371708333333	-3.195333458
1.40364E+18	0.010471975511966	0.197571271325758	0.266686309704734	6.537766667	-0.236994041666667	-3.121783583
1.40364E+18	0.0139626340159546	0.208043246837724	0.273667626712711	6.251739375	-0.204305208333333	-2.958339417
1.40364E+18	0.0153588974175501	0.21851522234969	0.272969495011913	6.186361708	-0.138927541666667	-2.884789542
1.40364E+18	0.0188495559215388	0.229685329562454	0.261799387799149	5.916678833	-0.0817220833333333	-2.745862
1.40364E+18	0.0223402144255274	0.234572251468038	0.252025543987981	5.900334417	0.106238708333333	-2.770378625
1.40364E+18	0.0272271363311115	0.231779724664847	0.247138622082397	5.720545833	0.0653776666666667	-2.713173167
1.40364E+18	0.0335103216382911	0.234572251468038	0.231081592964049	5.728718042	0.138927541666667	-2.672312125
1.40364E+18	0.0383972435438752	0.24015730507442	0.210835773640915	5.646995958	0.0653776666666667	-2.664139917
1.40364E+18	0.046774823953448	0.241553568476015	0.186401164112994	5.769579083	0.0653776666666667	-2.672312125
1.40364E+18	0.0537561409614254	0.24015730507442	0.161966554585074	5.696029208	0.0326888333333333	-2.59876225
1.40364E+18	0.0607374579694027	0.245044226980004	0.129852496348378	5.810440125	0.073549875	-2.582417833
1.40364E+18	0.0628318530717959	0.247836753783195	0.104021623418862	5.687857	0.0817220833333333	-2.574245625
1.40364E+18	0.0600393262686049	0.242251700176813	0.0767944870877505	5.7859235	0.163444166666667	-2.549729
1.40364E+18	0.0593411945678072	0.249931148885588	0.0544542726622231	5.83495675	0.14709975	-2.492523542
1.40364E+18	0.0551524043630208	0.247138622082397	0.0397935069454707	5.957539875	0.187960791666667	-2.443490292
1.40364E+18	0.0370009801422798	0.250629280586386	0.0265290046303138	5.957539875	0.179788583333333	-2.296390542
1.40364E+18	0.028623399732707	0.249931148885588	0.00698131700797732	6.039261958	0.196133	-2.20649625
1.40364E+18	0.0188495559215388	0.253421807389577	-0.00837758040957278	6.006573125	0.14709975	-2.165635208
1.40364E+18	0.00907571211037051	0.254119939090374	-0.018151424220741	6.055606375	0.187960791666667	-2.124774167
1.40364E+18	0.0	0.257610597594363	-0.0251327412287183	5.916678833	0.14709975	-2.100257542
1.40364E+18	-0.0111701072127637	0.259006860995958	-0.0342084533390889	5.83495675	0.196133	-2.002191042
1.40364E+18	-0.0216420827247297	0.259704992696756	-0.0432841654494594	5.720545833	0.187960791666667	-1.969502208
1.40364E+18	-0.0265290046303138	0.251327412287183	-0.0530580092606276	5.630651542	0.130755333333333	-1.91229675
1.40364E+18	-0.0342084533390889	0.245044226980004	-0.057246799465414	5.622479333	0.106238708333333	-1.944985583
1.40364E+18	-0.0432841654494594	0.24015730507442	-0.0565486677646163	5.581618292	0.0980665	-1.904124542
1.40364E+18	-0.0495673507566389	0.238062909972027	-0.0628318530717959	5.614307125	0.122583125	-1.96133
1.40364E+18	-0.0565486677646163	0.232477856365645	-0.0642281164733913	5.671512583	0.155271958333333	-2.01036325
1.40364E+18	-0.0712094334813687	0.231081592964049	-0.0712094334813687	5.7859235	0.163444166666667	-2.116601958
1.40364E+18	-0.0795870138909414	0.226892802759263	-0.0767944870877505	5.761406875	0.0817220833333333	-2.157463
1.40364E+18	-0.0872664625997165	0.227590934460061	-0.0949459113084915	5.851301167	0.0898942916666667	-2.239185083
1.40364E+18	-0.0900589894029074	0.220609617452083	-0.104021623418862	5.753234667	-0.00817220833333333	-2.222840667
1.40364E+18	-0.0935496479068961	0.215722695546499	-0.117286125734019	5.900334417	-0.024516625	-2.30456275
1.40364E+18	-0.0914552528045029	0.208741378538522	-0.12007865253721	5.777751292	-0.0572054583333333	-2.312734958
1.40364E+18	-0.0900589894029074	0.201061929829747	-0.123569311041199	5.924851042	0.0	-2.320907167
1.40364E+18	-0.0893608577021097	0.196175007924163	-0.121474915938805	5.859473375	-0.073549875	-2.239185083
1.40364E+18	-0.0879645943005142	0.185703032412197	-0.125663706143592	6.022917542	-0.114410916666667	-2.247357292
1.40364E+18	-0.0900589894029074	0.179419847105017	-0.122173047639603	5.9820565	-0.14709975	-2.173807417
1.40364E+18	-0.0886627260013119	0.178023583703422	-0.127059969545187	6.153672875	-0.196133	-2.165635208
1.40364E+18	-0.0851720674973233	0.174532925199433	-0.127758101245985	6.120984042	-0.24516625	-2.116601958
1.40364E+18	-0.0844739357965256	0.168947871593051	-0.129852496348378	6.194533917	-0.228821833333333	-2.124774167
1.40364E+18	-0.0816814089933346	0.168249739892253	-0.129852496348378	6.071950792	-0.261510666666667	-2.067568708
1.40364E+18	-0.0767944870877505	0.161966554585074	-0.131248759749974	6.063778583	-0.24516625	-2.083913125
1.40364E+18	-0.0760963553869528	0.154287105876299	-0.124965574442794	5.867645583	-0.302371708333333	-2.034879875
1.40364E+18	-0.0663225115757845	0.14172073526194	-0.122871179340401	5.916678833	-0.24516625	-2.092085333
1.40364E+18	-0.0621337213709981	0.134739418253962	-0.118682389135614	5.843128958	-0.204305208333333	-2.173807417
1.40364E+18	-0.0600393262686049	0.122871179340401	-0.107512281922851	5.843128958	-0.155271958333333	-2.198324042
1.40364E+18	-0.0607374579694027	0.116587994033221	-0.0956440430092893	5.745062458	-0.138927541666667	-2.247357292
1.40364E+18	-0.0614355896702004	0.0977384381116825	-0.0893608577021097	5.83495675	-0.024516625	-2.312734958
1.40364E+18	-0.0698131700797732	0.085870199198121	-0.085870199198121	5.949367667	0.00817220833333333	-2.394457042
1.40364E+18	-0.0816814089933346	0.0719075651821664	-0.0921533845053006	6.104639625	0.00817220833333333	-2.459834708
1.40364E+18	-0.0893608577021097	0.0551524043630208	-0.0977384381116825	6.251739375	-0.0163444166666667	-2.484351333
1.40364E+18	-0.0921533845053006	0.0383972435438752	-0.100530964914873	6.382494708	-0.106238708333333	-2.394457042
1.40364E+18	-0.085870199198121	0.0293215314335047	-0.101927228316469	6.5704555	-0.212477416666667	-2.394457042
1.40364E+18	-0.0767944870877505	0.0153588974175501	-0.0998328332140757	6.709383042	-0.302371708333333	-2.369940417
1.40364E+18	-0.0614355896702004	0.010471975511966	-0.0914552528045029	6.872827208	-0.384093791666667	-2.312734958
1.40364E+18	-0.0474729556542458	0.00279252680319093	-0.0816814089933346	6.938204875	-0.506676916666667	-2.296390542
1.40364E+18	-0.0279252680319093	-0.00418879020478639	-0.0656243798749868	6.987238125	-0.547537958333333	-2.2555295
1.40364E+18	-0.00488692190558412	-0.00907571211037051	-0.0488692190558412	6.905516042	-0.547537958333333	-2.222840667
1.40364E+18	0.018151424220741	-0.00837758040957278	-0.0418879020478639	6.807449542	-0.4903325	-2.320907167
1.40364E+18	0.0314159265358979	-0.00837758040957278	-0.0314159265358979	6.701210833	-0.392266	-2.410801458
1.40364E+18	0.0279252680319093	-0.00698131700797732	-0.0265290046303138	6.611316542	-0.073549875	-2.541556792
1.40364E+18	0.0167551608191456	-0.0125663706143592	-0.00767944870877505	6.431527958	0.367749375	-2.566073417
1.40364E+18	-0.010471975511966	-0.0167551608191456	0.000698131700797732	6.472389	0.719154333333333	-2.655967708
1.40364E+18	-0.0439822971502571	-0.0293215314335047	0.00279252680319093	6.415183542	0.997009416666667	-2.623278875
1.40364E+18	-0.0872664625997165	-0.0411897703470662	-0.0020943951023932	6.709383042	1.103248125	-2.639623292
1.40364E+18	-0.125663706143592	-0.0523598775598299	-0.0118682389135614	6.872827208	0.988837208333333	-2.582417833
1.40364E+18	-0.158475896081085	-0.0579449311662117	-0.0321140582366957	7.314126458	0.694637708333333	-2.655967708
1.40364E+18	-0.175231056900231	-0.0607374579694027	-0.0600393262686049	7.583809333	0.375921583333333	-2.623278875
1.40364E+18	-0.178721715404219	-0.0628318530717959	-0.078190750489346	7.976075333	0.130755333333333	-2.680484333
1.40364E+18	-0.162664686285871	-0.0530580092606276	-0.085870199198121	8.106830667	-0.0980665	-2.770378625
1.40364E+18	-0.134739418253962	-0.0432841654494594	-0.0900589894029074	8.278447042	-0.253338458333333	-2.884789542
1.40364E+18	-0.105417886820457	-0.0342084533390889	-0.0851720674973233	8.123175083	-0.367749375	-2.958339417
1.40364E+18	-0.0656243798749868	-0.0314159265358979	-0.0809832772925369	8.123175083	-0.44129925	-3.072750333
1.40364E+18	-0.0265290046303138	-0.0314159265358979	-0.0733038285837618	7.886181042	-0.596571208333333	-3.138128
1.40364E+18	0.00977384381116825	-0.0328121899374934	-0.0635299847725936	7.837147792	-0.621087833333333	-3.301572167
1.40364E+18	0.039095375244673	-0.0321140582366957	-0.046774823953448	7.641014792	-0.523021333333333	-3.342433208
1.40364E+18	0.057246799465414	-0.0383972435438752	-0.0223402144255274	7.469398417	-0.171616375	-3.375122042
1.40364E+18	0.0607374579694027	-0.0370009801422798	0.00558505360638185	7.281437625	0.367749375	-3.195333458
1.40364E+18	0.0432841654494594	-0.0453785605518526	0.0439822971502571	7.493915042	0.727326541666667	-3.146300208
1.40364E+18	0.00488692190558412	-0.046774823953448	0.0593411945678072	7.722736875	1.013353833	-2.974683833
1.40364E+18	-0.0307177948351002	-0.0551524043630208	0.0684169066781777	8.131347292	1.0787315	-2.917478375
1.40364E+18	-0.0642281164733913	-0.0509636141582344	0.0628318530717959	8.433719	1.152281375	-2.8439285
1.40364E+18	-0.100530964914873	-0.0516617458590322	0.0474729556542458	8.687057458	1.176798	-2.803067458
1.40364E+18	-0.13543754995476	-0.046774823953448	0.0265290046303138	8.891362667	1.266692292	-2.770378625
1.40364E+18	-0.162664686285871	-0.0502654824574367	0.00698131700797732	9.022118	1.144109167	-2.827584083
1.40364E+18	-0.182910505609006	-0.0530580092606276	-0.0146607657167524	9.185562167	0.964320583333333	-2.909306167
1.40364E+18	-0.198269403026556	-0.0642281164733913	-0.0335103216382911	9.177389958	0.702809916666667	-2.958339417
1.40364E+18	-0.204552588333735	-0.0705113017805709	-0.0509636141582344	9.283628667	0.326888333333333	-3.121783583
1.40364E+18	-0.196175007924163	-0.0774926187885482	-0.0509636141582344	9.185562167	0.0163444166666667	-3.309744375
1.40364E+18	-0.18151424220741	-0.0788888821901437	-0.0446804288510548	9.136528917	-0.196133	-3.465016333
1.40364E+18	-0.161268422884276	-0.0760963553869528	-0.0376991118430775	8.956740333	-0.34323275	-3.636632708
1.40364E+18	-0.14172073526194	-0.0691150383789754	-0.020943951023932	8.834157208	-0.384093791666667	-3.734699208
1.40364E+18	-0.124965574442794	-0.0614355896702004	0.00907571211037051	8.556302125	-0.424954833333333	-3.816421292
1.40364E+18	-0.103323491718064	-0.0586430628670095	0.0411897703470662	8.507268875	-0.310543916666667	-3.87362675
1.40364E+18	-0.0900589894029074	-0.0593411945678072	0.085870199198121	8.302963667	-0.155271958333333	-3.832765708
1.40364E+18	-0.078190750489346	-0.0649262481741891	0.120776784238008	8.302963667	0.114410916666667	-3.791904667
1.40364E+18	-0.0760963553869528	-0.0740019602845596	0.151494579073108	8.319308083	0.220649625	-3.718354792
1.40364E+18	-0.0733038285837618	-0.0719075651821664	0.164060949687467	8.588990958	0.359577166666667	-3.644804917
1.40364E+18	-0.0788888821901437	-0.0733038285837618	0.159174027781883	8.5317855	0.498504708333333	-3.563082833
1.40364E+18	-0.0823795406941324	-0.0705113017805709	0.14172073526194	8.703401875	0.604743416666667	-3.407810875
1.40364E+18	-0.0837758040957278	-0.0747000919853573	0.117984257434817	8.5317855	0.588399	-3.244366708
1.40364E+18	-0.0795870138909414	-0.0816814089933346	0.0970403064108847	8.58081875	0.661948875	-3.162644625
1.40364E+18	-0.0733038285837618	-0.0886627260013119	0.0795870138909414	8.401030167	0.612915625	-3.113611375
1.40364E+18	-0.0656243798749868	-0.104021623418862	0.0691150383789754	8.425546792	0.498504708333333	-3.154472417
1.40364E+18	-0.0607374579694027	-0.115889862332423	0.0600393262686049	8.376513542	0.375921583333333	-3.170816833
1.40364E+18	-0.0516617458590322	-0.126361837844389	0.0593411945678072	8.401030167	0.261510666666667	-3.309744375
1.40364E+18	-0.0425860337486616	-0.13543754995476	0.0635299847725936	8.28661925	0.269682875	-3.415983083
1.40364E+18	-0.0370009801422798	-0.151494579073108	0.0865683308989187	8.237586	0.310543916666667	-3.473188542
1.40364E+18	-0.0349065850398866	-0.16615534478986	0.114493598930828	8.229413792	0.433127041666667	-3.595771667
1.40364E+18	-0.0439822971502571	-0.183608637309803	0.154985237577096	8.3356525	0.4903325	-3.718354792
1.40364E+18	-0.0509636141582344	-0.191288086018579	0.188495559215388	8.441891208	0.351404958333333	-3.77556025
1.40364E+18	-0.0516617458590322	-0.210835773640915	0.233175988066442	8.662540833	0.138927541666667	-3.800076875
1.40364E+18	-0.0425860337486616	-0.213628300444106	0.263893782901543	8.834157208	-0.122583125	-3.832765708
1.40364E+18	-0.0188495559215388	-0.21851522234969	0.295309709437441	9.038462417	-0.302371708333333	-3.914487792
1.40364E+18	0.00977384381116825	-0.210137641940117	0.314857397059777	9.259112042	-0.326888333333333	-3.955348833
1.40364E+18	0.0446804288510548	-0.205948851735331	0.330914426178125	9.283628667	-0.351404958333333	-3.939004417
1.40364E+18	0.0823795406941324	-0.206646983436129	0.333706952981316	9.381695167	-0.326888333333333	-3.963521042
1.40364E+18	0.117984257434817	-0.210137641940117	0.328820031075732	9.299973083	-0.236994041666667	-3.97169325
1.40364E+18	0.145211393765928	-0.215024563845701	0.313461133658182	9.389867375	-0.130755333333333	-4.086104167
1.40364E+18	0.167551608191456	-0.216420827247297	0.297404104539834	9.275456458	-0.00817220833333333	-4.118793
1.40364E+18	0.189193690916185	-0.222704012554476	0.272969495011913	9.36535075	0.228821833333333	-4.225031708
1.40364E+18	0.205250720034533	-0.226194671058465	0.253421807389577	9.144701125	0.359577166666667	-4.233203917
1.40364E+18	0.215024563845701	-0.23387411976724	0.238761041672824	9.210078792	0.514849125	-4.298581583
1.40364E+18	0.216420827247297	-0.243647963578408	0.231779724664847	9.144701125	0.596571208333333	-4.274064958
1.40364E+18	0.20315632493214	-0.249931148885588	0.231081592964049	9.283628667	0.768187583333333	-4.306753792
1.40364E+18	0.193382481120972	-0.254119939090374	0.243647963578408	9.283628667	0.719154333333333	-4.339442625
1.40364E+18	0.180816110506613	-0.263893782901543	0.249931148885588	9.553311542	0.743670958333333	-4.421164708
1.40364E+18	0.166853476490658	-0.270176968208722	0.257610597594363	9.577828167	0.612915625	-4.347614833
1.40364E+18	0.154985237577096	-0.2771582852167	0.261101256098352	9.749444542	0.4903325	-4.249548333
1.40364E+18	0.149400183970715	-0.281347075421486	0.261799387799149	9.7085835	0.2941995	-4.094276375
1.40364E+18	0.146607657167524	-0.291819050933452	0.262497519499947	9.773961167	0.179788583333333	-4.004382083
1.40364E+18	0.149400183970715	-0.290422787531856	0.267384441405531	9.790305583	0.0	-3.988037667
1.40364E+18	0.154287105876299	-0.291819050933452	0.266686309704734	9.880199875	-0.0572054583333333	-4.037070917
1.40364E+18	0.158475896081085	-0.283441470523879	0.26459191460234	9.765788958	-0.073549875	-4.094276375
1.40364E+18	0.160570291183478	-0.28623399732707	0.256214334192768	9.700411292	-0.0572054583333333	-4.151481833
1.40364E+18	0.160570291183478	-0.276460153515902	0.240855436775218	9.5124505	-0.0326888333333333	-4.094276375
1.40364E+18	0.159872159482681	-0.286932129027868	0.233175988066442	9.414384	0.0817220833333333	-4.151481833
1.40364E+18	0.15707963267949	-0.291819050933452	0.226892802759263	9.283628667	0.073549875	-4.225031708
1.40364E+18	0.151494579073108	-0.298102236240631	0.225496539357667	9.373522958	0.0898942916666667	-4.355787042
1.40364E+18	0.149400183970715	-0.296705972839036	0.227590934460061	9.5124505	0.106238708333333	-4.519231208
1.40364E+18	0.149400183970715	-0.299498499642227	0.236666646570431	9.675894667	0.0980665	-4.600953292
1.40364E+18	0.143815130364333	-0.29251718263425	0.243647963578408	9.921060917	0.187960791666667	-4.65815875
1.40364E+18	0.142418866962737	-0.296705972839036	0.253421807389577	10.1008495	0.220649625	-4.6091255
1.40364E+18	0.140324471860344	-0.296705972839036	0.251327412287183	10.28881029	0.24516625	-4.576436667
1.40364E+18	0.14172073526194	-0.305083553248609	0.24923301718479	10.48494329	0.138927541666667	-4.527403417
1.40364E+18	0.14451326206513	-0.299498499642227	0.245742358680802	10.6892485	0.0572054583333333	-4.551920042
1.40364E+18	0.147305788868321	-0.300196631343025	0.247138622082397	10.76279838	0.00817220833333333	-4.486542375
1.40364E+18	0.152192710773906	-0.287630260728665	0.24015730507442	10.83634825	0.0326888333333333	-4.470197958
1.40364E+18	0.154287105876299	-0.27995081201989	0.239459173373622	10.64021525	0.073549875	-4.331270417
1.40364E+18	0.148702052269917	-0.274365758413509	0.236666646570431	10.63204304	0.155271958333333	-4.306753792
1.40364E+18	0.142418866962737	-0.272969495011913	0.232477856365645	10.42773783	0.14709975	-4.257720542
1.40364E+18	0.134041286553164	-0.276460153515902	0.229685329562454	10.47677108	0.114410916666667	-4.298581583
1.40364E+18	0.124965574442794	-0.281347075421486	0.228987197861656	10.38687679	-0.0817220833333333	-4.323098208
1.40364E+18	0.114493598930828	-0.282743338823081	0.228289066160858	10.51763212	-0.0653776666666667	-4.404820292
1.40364E+18	0.103323491718064	-0.275063890114306	0.232477856365645	10.53397654	-0.073549875	-4.445681333
1.40364E+18	0.0886627260013119	-0.272969495011913	0.237364778271229	10.66473187	-0.0326888333333333	-4.568264458
1.40364E+18	0.0767944870877505	-0.263893782901543	0.250629280586386	10.61569863	-0.04903325	-4.641814333
1.40364E+18	0.0621337213709981	-0.261799387799149	0.257610597594363	10.77097058	0.0408610416666667	-4.764397458
1.40364E+18	0.0516617458590322	-0.256912465893565	0.265290046303138	10.83634825	-0.0572054583333333	-4.829775125
1.40364E+18	0.0432841654494594	-0.262497519499947	0.261101256098352	10.96710358	-0.0326888333333333	-4.968702667
1.40364E+18	0.0383972435438752	-0.261799387799149	0.249931148885588	10.99162021	-0.0163444166666667	-5.0013915
1.40364E+18	0.0363028484414821	-0.272271363311115	0.239459173373622	11.09785892	-0.00817220833333333	-5.066769167
1.40364E+18	0.0321140582366957	-0.271573231610318	0.229685329562454	11.179581	0.024516625	-5.213868917
1.40364E+18	0.0300196631343025	-0.272969495011913	0.21851522234969	11.26947529	-0.00817220833333333	-5.238385542
1.40364E+18	0.028623399732707	-0.269478836507924	0.206646983436129	11.30216413	-0.0326888333333333	-5.279246583
1.40364E+18	0.0335103216382911	-0.271573231610318	0.194778744522567	11.35119738	-0.0408610416666667	-5.295591
1.40364E+18	0.039095375244673	-0.272271363311115	0.180117978805815	11.28581971	-0.0980665	-5.311935417
1.40364E+18	0.0418879020478639	-0.277856416917497	0.166853476490658	11.23678646	-0.163444166666667	-5.34462425
1.40364E+18	0.0460766922526503	-0.278554548618295	0.151494579073108	11.36754179	-0.155271958333333	-5.418174125
1.40364E+18	0.0446804288510548	-0.285535865626272	0.14451326206513	11.46560829	-0.228821833333333	-5.491724
1.40364E+18	0.0425860337486616	-0.282743338823081	0.134739418253962	11.58001921	-0.179788583333333	-5.581618292
1.40364E+18	0.0411897703470662	-0.27995081201989	0.136135681655558	11.62905246	-0.196133	-5.63882375
1.40364E+18	0.0314159265358979	-0.275762021815104	0.128456232946783	11.73529117	-0.138927541666667	-5.720545833
1.40364E+18	0.0230383461263252	-0.278554548618295	0.126361837844389	11.64539688	-0.138927541666667	-5.7859235
1.40364E+18	0.00837758040957278	-0.27087509990952	0.115191730631626	11.80884104	-0.14709975	-5.88399
1.40364E+18	-0.00488692190558412	-0.268082573106329	0.109606677025244	11.73529117	-0.163444166666667	-5.957539875
1.40364E+18	-0.018151424220741	-0.263195651200745	0.0984365698124802	11.83335767	-0.179788583333333	-6.063778583
1.40364E+18	-0.0202458193231342	-0.259704992696756	0.085870199198121	11.75980779	-0.286027291666667	-6.096467417
1.40364E+18	-0.0167551608191456	-0.254818070791172	0.0705113017805709	11.89873533	-0.310543916666667	-6.137328458
1.40364E+18	-0.0125663706143592	-0.241553568476015	0.0698131700797732	11.82518546	-0.302371708333333	-6.120984042
1.40364E+18	-0.00907571211037051	-0.235968514869633	0.0670206432765822	11.93959638	-0.253338458333333	-6.137328458
1.40364E+18	-0.0020943951023932	-0.229685329562454	0.0705113017805709	11.76798	-0.326888333333333	-6.063778583
1.40364E+18	0.00837758040957278	-0.226194671058465	0.0691150383789754	11.87421871	-0.286027291666667	-6.006573125
1.40364E+18	0.0167551608191456	-0.217817090648892	0.0747000919853573	11.84970208	-0.375921583333333	-6.006573125
1.40364E+18	0.0223402144255274	-0.217118958948095	0.0795870138909414	11.98045742	-0.335060541666667	-5.949367667
1.40364E+18	0.028623399732707	-0.204552588333735	0.0816814089933346	11.98045742	-0.392266	-6.006573125
1.40364E+18	0.0425860337486616	-0.193382481120972	0.0851720674973233	12.11121275	-0.302371708333333	-6.03108975
1.40364E+18	0.046774823953448	-0.174532925199433	0.0914552528045029	12.00497404	-0.220649625	-6.022917542
1.40364E+18	0.046774823953448	-0.169646003293849	0.0928515162060983	12.03766287	-0.0898942916666667	-6.063778583
1.40364E+18	0.0446804288510548	-0.162664686285871	0.0837758040957278	11.93142417	-0.0980665	-6.039261958
1.40364E+18	0.039095375244673	-0.16615534478986	0.0698131700797732	12.02949067	-0.0653776666666667	-6.080123
1.40364E+18	0.0349065850398866	-0.161268422884276	0.0551524043630208	12.01314625	-0.122583125	-6.080123
1.40364E+18	0.0335103216382911	-0.159872159482681	0.0418879020478639	12.04583508	-0.114410916666667	-6.145500667
1.40364E+18	0.0328121899374934	-0.152192710773906	0.0383972435438752	12.02131846	-0.14709975	-6.153672875
1.40364E+18	0.0363028484414821	-0.146607657167524	0.0376991118430775	12.10304054	-0.187960791666667	-6.170017292
1.40364E+18	0.0383972435438752	-0.13543754995476	0.0356047167406843	12.13572938	-0.269682875	-6.194533917
1.40364E+18	0.0474729556542458	-0.127059969545187	0.0363028484414821	12.11938496	-0.335060541666667	-6.210878333
1.40364E+18	0.057246799465414	-0.115191730631626	0.0446804288510548	12.07035171	-0.367749375	-6.137328458
1.40364E+18	0.06771877497738	-0.108908545324446	0.0523598775598299	12.02949067	-0.384093791666667	-6.161845083
1.40364E+18	0.0767944870877505	-0.0956440430092893	0.0614355896702004	12.02131846	-0.433127041666667	-6.137328458
1.40364E+18	0.0893608577021097	-0.0907571211037051	0.0705113017805709	12.01314625	-0.465815875	-6.145500667
1.40364E+18	0.0970403064108847	-0.0774926187885482	0.0802851455917391	12.09486833	-0.416782625	-6.145500667
1.40364E+18	0.103323491718064	-0.0740019602845596	0.0900589894029074	12.10304054	-0.400438208333333	-6.120984042
1.40364E+18	0.103323491718064	-0.0586430628670095	0.0907571211037051	12.16841821	-0.351404958333333	-6.12915625
1.40364E+18	0.101927228316469	-0.0488692190558412	0.0907571211037051	12.10304054	-0.359577166666667	-6.063778583
1.40364E+18	0.0956440430092893	-0.0356047167406843	0.0802851455917391	12.09486833	-0.2941995	-6.088295208
1.40364E+18	0.0914552528045029	-0.0237364778271229	0.0733038285837618	11.91507975	-0.269682875	-6.039261958
1.40364E+18	0.0830776723949301	-0.0160570291183478	0.0614355896702004	11.83335767	-0.122583125	-6.080123
1.40364E+18	0.0705113017805709	-0.00767944870877505	0.0516617458590322	11.62088025	-0.196133	-5.998400917
1.40364E+18	0.0586430628670095	0.00488692190558412	0.0404916386462684	11.68625792	-0.196133	-6.047434167
1.40364E+18	0.0551524043630208	0.018151424220741	0.0321140582366957	11.50646933	-0.302371708333333	-6.039261958
1.40364E+18	0.046774823953448	0.0272271363311115	0.018151424220741	11.51464154	-0.318716125	-6.071950792
1.40364E+18	0.0418879020478639	0.0460766922526503	0.0195476876223365	11.30216413	-0.457643666666667	-6.03108975
1.40364E+18	0.0383972435438752	0.0600393262686049	0.0188495559215388	11.31033633	-0.465815875	-6.014745333
1.40364E+18	0.0432841654494594	0.075398223686155	0.0230383461263252	11.0815145	-0.53936575	-5.949367667
1.40364E+18	0.0544542726622231	0.0830776723949301	0.0321140582366957	11.03248125	-0.580226791666667	-5.875817792
1.40364E+18	0.0607374579694027	0.0984365698124802	0.0376991118430775	10.86903708	-0.612915625	-5.7859235
1.40364E+18	0.0656243798749868	0.107512281922851	0.0495673507566389	10.82000383	-0.580226791666667	-5.687857
1.40364E+18	0.0740019602845596	0.123569311041199	0.057246799465414	10.58300979	-0.531193541666667	-5.597962708
1.40364E+18	0.0837758040957278	0.128456232946783	0.0621337213709981	10.53397654	-0.482160291666667	-5.54075725
1.40364E+18	0.0900589894029074	0.145211393765928	0.057246799465414	10.40322121	-0.44129925	-5.44269075
1.40364E+18	0.0886627260013119	0.149400183970715	0.0481710873550435	10.41956562	-0.335060541666667	-5.426346333
1.40364E+18	0.0837758040957278	0.157777764380287	0.0328121899374934	10.41139342	-0.196133	-5.44269075
1.40364E+18	0.0719075651821664	0.152890842474703	0.0160570291183478	10.43591004	-0.024516625	-5.450862958
1.40364E+18	0.0551524043630208	0.152890842474703	-0.00418879020478639	10.45225446	0.0898942916666667	-5.44269075
1.40364E+18	0.0328121899374934	0.142418866962737	-0.0258308729295161	10.62387083	0.138927541666667	-5.418174125
1.40364E+18	0.0111701072127637	0.142418866962737	-0.0586430628670095	10.77097058	0.171616375	-5.352796458
1.40364E+18	-0.0020943951023932	0.134739418253962	-0.0851720674973233	10.89355371	0.171616375	-5.271074375
1.40364E+18	-0.0167551608191456	0.133343154852367	-0.109606677025244	11.14689217	0.0326888333333333	-5.213868917
1.40364E+18	-0.0251327412287183	0.14172073526194	-0.115889862332423	11.21226983	-0.155271958333333	-5.230213333
1.40364E+18	-0.028623399732707	0.162664686285871	-0.114493598930828	11.17140879	-0.24516625	-5.205696708
1.40364E+18	-0.0307177948351002	0.176627320301826	-0.0991347015132779	10.90989813	-0.302371708333333	-5.099458
